PacketCounter,SampleTimeFine,Euler_X,Euler_Y,Euler_Z,FreeAcc_X,FreeAcc_Y,FreeAcc_Z,Gyr_X,Gyr_Y,Gyr_Z
1,1532629266,-90.94014,-33.435043,97.09288,-0.060917,-0.059152,0.140241,0,0,0
2,1532645933,-90.821602,-33.420963,96.993576,-0.029861,-0.095599,0.132647,3.81466,-1.870752,-2.059197
3,1532662600,-90.726524,-33.33926,96.958305,0.03334,-0.075431,0.07826,2.534204,-2.002491,-1.937127
4,1532679267,-90.725243,-33.266933,96.816711,0.146235,-0.026157,0.02343,0.490246,-1.35714,-2.368393
5,1532695934,-90.815895,-33.224255,96.83741,0.26096,0.040256,-0.10087,0.008612,0.068559,-1.860173
6,1532712601,-90.957306,-33.202908,96.798981,0.211193,0.111929,-0.131904,0.619065,1.494866,-0.617817
7,1532729268,-91.079697,-33.193733,96.790237,0.121407,0.113562,-0.072938,1.070438,2.181812,1.052086
8,1532745935,-91.151711,-33.187904,96.711319,0.045847,0.099366,-0.009902,1.952116,2.063545,1.915234
9,1532762602,-91.189316,-33.186607,96.701706,0.015667,0.06026,0.022482,1.660785,2.089209,1.965986
10,1532779269,-91.216667,-33.189754,96.640556,-0.042204,-0.002236,0.08637,0.133782,2.774246,1.501602
11,1532795936,-91.225227,-33.192368,96.58091,-0.051051,-0.056388,0.063248,-0.500562,3.175866,1.02372
12,1532812603,-91.20977,-33.193893,96.467316,-0.054566,-0.074035,0.095889,-0.694924,4.175529,0.517498
13,1532829270,-91.173027,-33.211761,96.398422,-0.097745,-0.013507,0.002503,0.011404,4.109692,-0.898442
14,1532845937,-91.118996,-33.215641,96.328941,-0.095158,0.116586,0.003693,2.03532,1.749572,-0.141446
15,1532862604,-91.064178,-33.205044,96.31707,-0.037622,0.15576,-0.014191,2.851033,0.117722,1.066583
16,1532879271,-91.024696,-33.16547,96.327637,0.03226,0.157269,0.009459,2.359538,-0.547702,3.113244
17,1532895938,-91.01265,-33.116302,96.362053,-0.064213,0.083138,0.154911,0.965554,-0.629471,3.876092
18,1532912605,-91.03466,-33.103668,96.384949,-0.055036,0.023663,0.245651,-0.829864,-1.132722,1.665114
19,1532929272,-91.028389,-33.118984,96.406464,0.008557,0.039932,0.188039,0.563767,-0.736327,-0.130292
20,1532945939,-90.987488,-33.151543,96.421188,-0.012563,0.049666,0.150865,2.451078,-0.302179,-1.242613
21,1532962606,-90.953247,-33.184917,96.443665,-0.015047,0.049836,0.120012,2.398533,-0.792188,-1.351262
22,1532979273,-90.950615,-33.225624,96.467247,0.012383,0.052713,0.09661,0.541715,-0.822705,-1.834586
23,1532995940,-90.980232,-33.254578,96.496483,-0.007308,0.040503,0.077538,-1.228436,-1.000445,-1.171768
24,1533012607,-91.055176,-33.308113,96.499565,0.123824,0.043743,0.008101,-4.373522,-0.298913,-2.680318
25,1533029274,-91.133934,-33.402603,96.468849,0.164436,-0.029973,-0.010083,-5.859188,1.908447,-5.144184
26,1533045941,-91.201012,-33.541759,96.390701,0.164462,-0.092286,-0.071831,-6.554894,4.31384,-7.882465
27,1533062608,-91.27681,-33.686321,96.330963,0.094403,-0.079766,-0.0863,-7.265814,4.77177,-8.329664
28,1533079275,-91.343773,-33.817604,96.289185,0.055419,-0.075194,-0.109042,-6.533726,4.489416,-7.629194
29,1533095942,-91.400116,-33.956257,96.155357,0.135815,-0.035151,-0.023046,-6.012788,4.651364,-8.136389
30,1533112609,-91.455017,-34.11702,96.057968,0.142476,0.030183,0.050248,-6.799163,6.047489,-9.462323
31,1533129276,-91.535324,-34.308002,95.970039,0.136557,0.035459,0.19838,-9.297302,7.586033,-11.22489
32,1533145943,-91.712921,-34.566269,95.805748,0.12243,0.023088,0.307286,-16.473955,9.675851,-15.178422
33,1533162610,-91.926605,-34.875229,95.596672,0.05446,-0.007406,0.246083,-20.001787,11.732491,-18.123396
34,1533179277,-92.114281,-35.17067,95.397972,0.082975,0.09261,0.10934,-18.349754,11.479444,-17.290884
35,1533195944,-92.317688,-35.466896,95.174385,0.212187,0.210008,0.085381,-19.308542,11.445251,-17.266603
36,1533212611,-92.555405,-35.807377,94.909668,0.350101,0.247098,0.139911,-23.698454,14.843157,-19.662487
37,1533229278,-92.902115,-36.259884,94.515732,0.30967,0.216329,0.135877,-34.517887,21.11587,-25.945234
38,1533245945,-93.274689,-36.800449,93.995819,0.387205,0.117289,0.195928,-40.071838,26.721647,-30.751383
39,1533262612,-93.532684,-37.419506,93.211494,0.277994,0.238533,0.041629,-43.251213,40.05875,-34.5229
40,1533279279,-93.838478,-38.029613,92.496071,-0.077126,-0.182261,-0.059341,-44.001438,36.688118,-33.954365
41,1533295946,-93.99659,-38.593658,91.841553,0.002115,0.012681,-0.078411,-33.297028,33.458023,-31.34725
42,1533312613,-94.157654,-39.116802,91.265549,-0.002299,0.051552,-0.06638,-30.8608,29.455004,-29.096262
43,1533329280,-94.332916,-39.653217,90.723312,0.087942,0.084495,-0.039038,-30.717506,27.809458,-29.93635
44,1533345947,-94.586823,-40.169033,90.235588,-0.016561,0.182337,-0.309712,-33.585243,25.124796,-28.803024
45,1533362614,-94.905411,-40.62888,89.821892,0.215344,0.168952,-0.148699,-34.816059,21.430481,-25.592215
46,1533379281,-95.037849,-41.002811,89.377663,-0.227962,0.040024,-0.032401,-24.970118,22.360176,-20.236036
47,1533395948,-95.066887,-41.290855,88.969963,-0.16056,0.026721,-0.10913,-17.512896,20.133692,-15.242322
48,1533412615,-95.006157,-41.420288,88.68428,-0.334753,0.065121,-0.063916,-7.407992,13.717923,-6.272709
49,1533429282,-94.867195,-41.439556,88.537445,-0.371841,0.137652,-0.006536,2.705566,6.835883,-0.26066
50,1533445949,-94.763657,-41.435768,88.493942,-0.173347,0.21426,0.024352,4.609031,2.020983,0.717629
51,1533462616,-94.671173,-41.390575,88.492165,-0.120142,0.276545,-0.075316,5.568195,-0.083549,3.057075
52,1533479283,-94.561668,-41.301018,88.515671,-0.11651,0.240719,-0.011655,7.56687,-1.45297,5.652896
53,1533495950,-94.461517,-41.233406,88.550056,-0.105437,0.142427,0.106898,7.414385,-1.848674,4.327939
54,1533512617,-94.387268,-41.193413,88.590111,-0.166109,0.043959,0.192326,6.067016,-1.985856,2.661192
55,1533529284,-94.325439,-41.183357,88.666084,-0.260035,-0.046595,0.317987,6.715747,-3.483418,0.73422
56,1533545951,-94.271858,-41.18832,88.77523,-0.109669,0.044283,0.176605,7.49901,-4.935069,-0.304509
57,1533562618,-94.157509,-41.185356,88.876442,-0.061888,0.121997,0.139431,10.819122,-4.623261,0.192755
58,1533579285,-94.039322,-41.170681,88.988518,0.01902,0.146925,0.066606,11.473197,-5.165828,0.868866
59,1533595952,-93.98156,-41.1516,89.103859,0.076371,0.120972,0.059078,7.98076,-5.328186,1.138607
60,1533612619,-93.983749,-41.136139,89.211029,0.052902,0.046642,0.049846,4.070326,-4.935362,0.954054
61,1533629286,-93.993637,-41.122314,89.327477,0.072778,-0.001112,0.00934,3.982999,-5.339698,0.816808
62,1533645953,-93.966965,-41.106449,89.433723,0.113192,0.029811,-0.006238,5.782881,-4.881193,0.957409
63,1533662620,-93.91217,-41.094536,89.535088,0.038054,0.016339,0.013041,7.289152,-4.630764,0.730494
64,1533679287,-93.840836,-41.065681,89.634163,0.111528,0.038884,-0.057664,8.195291,-4.592973,1.745781
65,1533695954,-93.748245,-41.00444,89.71785,0.141619,0.042621,-0.017861,8.872762,-4.016124,3.730997
66,1533712621,-93.683411,-40.964268,89.762459,0.133381,0.021225,0.078942,5.680634,-2.153298,2.583739
67,1533729288,-93.655464,-40.956402,89.782616,0.092315,0.0553,0.075155,2.51762,-0.909725,0.714076
68,1533745955,-93.616455,-40.970509,89.775314,0.086308,0.134651,0.055536,2.10934,0.421617,-0.52506
69,1533762622,-93.54702,-40.972996,89.761566,0.035389,0.177135,0.043431,3.685674,0.672788,0.197186
70,1533779289,-93.477783,-40.954216,89.7761,-0.040159,0.143589,0.080143,4.79026,-0.681311,1.401021
71,1533795956,-93.433937,-40.9198,89.827858,-0.076845,0.11558,0.127911,4.723987,-2.426112,2.243436
72,1533812623,-93.418938,-40.900543,89.88752,0.067741,0.123283,0.103001,3.294184,-2.736999,1.317946
73,1533829290,-93.376297,-40.931835,89.882835,0.185715,0.091449,0.017298,2.428615,0.359084,-1.529782
74,1533845957,-93.257065,-40.999725,89.826256,0.33223,0.097883,-0.18771,4.997865,2.842863,-3.58501
75,1533862624,-93.021835,-41.112911,89.714149,0.531687,0.080284,-0.286643,9.790658,5.508251,-6.168489
76,1533879291,-92.513954,-41.332458,89.46505,0.976787,-0.039185,-0.346026,20.758663,11.973819,-12.278963
77,1533895958,-91.483551,-41.804329,88.868156,1.41575,-0.288224,-0.393437,38.267906,27.942228,-27.033703
78,1533912625,-89.621735,-42.567989,87.805199,1.742167,-0.368741,-0.673376,69.183678,47.975452,-45.069656
79,1533929292,-86.700768,-43.661049,86.140297,2.067138,-0.410732,-0.795012,107.394737,71.183472,-67.637444
80,1533945959,-82.548958,-44.980347,83.640732,1.9269,-0.594419,-0.567893,144.842621,99.967514,-88.650436
81,1533962626,-77.177475,-46.376881,80.253983,1.296728,-0.699205,0.100018,177.500824,125.711708,-107.319336
82,1533979293,-70.845108,-47.666012,76.095726,0.94545,-0.499756,0.60321,198.022247,142.997238,-121.130234
83,1533995960,-64.04245,-48.655933,71.45195,0.214216,-0.506009,1.193152,201.200226,149.707413,-126.127518
84,1534012627,-57.999905,-49.25349,67.105934,-0.993798,-0.615673,2.730687,166.529297,133.270447,-114.379814
85,1534029294,-54.439098,-49.628056,64.231529,-1.776924,-0.24193,4.369164,83.244164,81.463791,-81.157333
86,1534045961,-53.354107,-50.141018,62.96759,-1.631589,0.020802,5.270936,7.632734,21.946856,-53.798775
87,1534062628,-53.646435,-50.92963,62.744747,-1.210558,0.117643,4.581169,-27.438129,-20.836388,-43.219372
88,1534079295,-54.202522,-51.985508,62.865402,-0.222672,-0.093789,3.265673,-27.357281,-40.567226,-48.655735
89,1534095962,-54.286427,-53.324131,62.60257,0.517267,-0.194903,1.921627,-17.249966,-38.803864,-70.880646
90,1534112629,-53.696987,-54.905197,61.783913,0.752535,0.015955,0.496168,-4.098174,-32.079903,-93.791634
91,1534129296,-52.132103,-56.544315,60.175198,1.129274,0.332847,-0.739288,14.474525,-15.480976,-111.357468
92,1534145963,-49.658466,-58.126141,57.59602,1.31741,0.697098,-1.890375,18.495731,5.506618,-126.417938
93,1534162630,-46.695534,-59.409615,54.244659,0.916818,0.833824,-2.697092,6.198406,27.014053,-126.938164
94,1534179297,-43.788307,-60.35796,50.769062,0.102284,1.394196,-3.527256,-5.594786,34.978901,-114.040749
95,1534195964,-40.817669,-61.046463,47.105949,0.192381,1.741192,-3.814725,-13.131845,42.597713,-107.196465
96,1534212631,-36.974075,-61.323891,42.972042,-0.147758,2.517756,-4.989917,13.526151,62.889359,-103.209007
97,1534229298,-32.314262,-61.021534,38.603298,-0.016365,2.976778,-5.468379,50.073063,87.545319,-93.206032
98,1534245965,-26.600887,-59.694542,33.900013,-0.356921,3.456617,-5.353521,97.506447,138.727737,-81.726074
99,1534262632,-20.702173,-57.203293,29.627562,-1.087213,3.343938,-4.99645,135.230011,191.500519,-62.068981
100,1534279299,-15.201202,-53.950874,26.352283,-1.869295,2.606809,-4.136289,167.492386,220.674316,-44.524307
101,1534295966,-10.167802,-50.056499,24.212791,-2.320345,1.890221,-3.080765,200.160324,246.089539,-24.668606
102,1534312633,-5.792505,-46.136189,23.219532,-2.294379,0.983986,-2.031767,217.317856,239.189072,-5.588841
103,1534329300,-1.884744,-42.460518,22.788517,-1.686931,0.193439,-0.838484,215.435577,221.91452,-2.545852
104,1534345967,1.461452,-39.047604,22.582106,-1.548382,-0.27949,0.18445,191.65065,205.359619,-7.529616
105,1534362634,3.281934,-37.515793,21.892136,0.023715,-0.344119,-0.080821,82.55764,90.915039,-35.231895
106,1534379301,5.391737,-34.592464,21.602266,-0.304882,-1.055223,1.540763,115.315277,174.264008,-26.321087
107,1534395968,7.091451,-32.030449,21.843201,-0.302519,-0.776664,1.275983,108.935211,154.506943,-3.841006
108,1534412635,8.459104,-29.974566,22.072199,0.522797,-1.687804,1.636127,88.18914,124.156708,-4.235612
109,1534429302,9.761763,-28.07131,22.20892,0.308965,-1.356933,2.285769,81.30645,114.217216,-10.327529
110,1534445969,10.730447,-26.619511,22.461327,0.434701,-0.835139,2.817021,64.343155,88.414772,-1.666894
111,1534462636,11.384424,-25.513496,22.647902,0.746493,-0.402917,2.668542,43.494774,67.358269,-2.325071
112,1534479303,11.610736,-24.778557,22.739374,0.568217,-0.103349,2.210654,15.30587,44.531685,-3.429426
113,1534495970,11.434895,-24.409296,22.821924,0.397681,-0.135744,1.578321,-9.058783,22.96221,0.455837
114,1534512637,11.098646,-24.294228,22.937687,0.203868,0.219073,1.254519,-17.84602,8.373322,5.312625
115,1534529304,10.882917,-24.358824,23.130436,-0.088949,0.364017,0.702129,-8.706916,-1.418906,11.542173
116,1534545971,10.772979,-24.483494,23.423708,-0.158706,0.558463,0.060781,0.143937,-3.961034,17.614019
117,1534562638,10.76003,-24.56753,23.677368,-0.242006,0.648728,-0.04109,4.985241,-1.989251,15.035699
118,1534579305,10.774871,-24.533358,23.931465,-0.137782,0.60127,-0.204141,6.642717,4.982488,13.755037
119,1534595972,10.83479,-24.379173,24.188046,-0.099469,0.782457,-0.202351,9.363818,12.094828,12.562413
120,1534612639,10.884791,-24.177641,24.413931,-0.116174,0.777943,-0.607522,7.937469,14.595486,10.406882
121,1534629306,10.873797,-24.106588,24.590736,-0.286687,0.615556,-1.049636,3.014405,6.415965,9.275368
122,1534645973,10.97125,-23.906385,24.738625,-0.547174,0.602772,-1.150211,8.765028,13.726288,6.274932
123,1534662640,11.234571,-23.525568,24.939529,-0.882811,0.797668,-0.785815,19.920898,24.922884,7.044818
124,1534679307,11.502696,-22.88245,25.223032,-0.729315,1.195193,-0.894574,22.005728,41.254913,8.365859
125,1534695974,7.939299,-21.303892,26.239664,-1.543142,3.208161,-2.103645,-191.698257,103.228996,40.398567
126,1534712641,4.376275,-21.434269,26.913387,0.694264,-0.98548,-0.705586,-200.108459,-3.440354,39.054649
127,1534729308,4.32615,-19.740921,26.927526,0.683534,0.171671,-2.074258,-3.683203,101.661079,-6.176754
128,1534745975,4.366616,-18.315872,26.881411,-2.016459,0.412021,-0.887225,0.571678,85.385391,-8.380949
129,1534762642,4.395338,-17.102825,27.08704,-1.534896,0.26419,-0.737559,4.439734,73.681641,6.875549
130,1534779309,4.627826,-15.91513,27.468092,-1.763566,0.823537,0.178935,19.352804,72.897575,16.965691
131,1534795976,4.973917,-14.848351,27.960365,-1.696119,0.853443,0.550504,27.412436,66.223915,23.752947
132,1534812643,5.248981,-14.014803,28.526871,-1.856498,0.693209,0.721033,23.697069,52.741673,29.079596
133,1534829310,5.407526,-13.403753,29.148529,-1.725107,0.121447,0.806097,16.986143,39.789932,33.43935
134,1534845977,5.498226,-13.325548,29.876167,-1.40146,0.019808,1.080281,14.115252,8.551733,42.615547
135,1534862644,5.484483,-13.577872,30.652246,-1.237388,0.524653,1.403755,8.555842,-10.948615,47.325394
136,1534879311,5.471935,-13.965319,31.546196,-1.46399,0.455556,1.293246,10.511214,-18.409519,54.904205
137,1534895978,5.431365,-14.579725,32.576912,-1.674256,0.456793,1.020799,11.251127,-31.28323,64.032524
138,1534912645,5.434367,-15.279571,33.705662,-1.382585,0.517295,0.617464,16.001408,-35.927826,70.034035
139,1534929312,5.666043,-15.762482,34.913818,-1.029338,0.377493,0.230247,31.612066,-22.424294,73.278885
140,1534945979,6.113305,-16.025656,36.213417,-1.041826,0.151585,-0.086166,46.462704,-8.350775,77.209435
141,1534962646,6.608502,-16.272745,37.576221,-1.066429,0.148111,-0.3097,50.693943,-6.37162,80.71563
142,1534979313,7.012637,-16.59585,38.935066,-1.090198,0.055805,-0.414105,45.519615,-10.313872,80.988197
143,1534995980,7.293906,-17.101954,40.269176,-1.172901,-0.100017,-0.418471,38.252724,-20.929256,80.865189
144,1535012647,7.467316,-17.736395,41.610901,-1.077605,-0.084139,-0.618681,32.653416,-28.23303,82.16787
145,1535029314,7.53497,-18.232838,42.890186,-0.9061,-0.053668,-0.874899,25.885271,-20.357201,77.402031
146,1535045981,7.498466,-18.5662,44.029037,-0.990975,-0.127968,-0.752683,17.485544,-11.70725,68.049011
147,1535062648,7.370252,-18.842085,45.097118,-1.132827,-0.352541,-0.610098,10.946129,-8.931717,63.504318
148,1535079315,7.291804,-19.014198,46.210583,-1.208062,-0.500404,-0.414676,15.031681,-2.577497,65.182533
149,1535095982,7.288312,-19.166462,47.382866,-1.414782,-0.6153,-0.119259,20.840981,-1.058541,68.290123
150,1535112649,7.360046,-19.333984,48.59341,-1.379126,-0.878756,0.063383,26.267754,-1.697464,70.507103
151,1535129316,7.405669,-19.597551,49.77203,-1.246954,-1.012724,0.137651,24.302059,-7.631707,69.380829
152,1535145983,7.439992,-19.76228,50.895977,-0.971566,-1.244438,0.207898,22.758953,-2.160941,65.477493
153,1535162650,7.466058,-19.836576,51.949306,-1.000966,-1.457386,0.389435,20.968866,2.679749,60.76889
154,1535179317,7.434733,-20.012165,52.904514,-1.089807,-1.66354,0.662918,15.66355,-4.132863,56.020214
155,1535195984,7.330791,-20.470636,53.759865,-1.000761,-1.749389,0.670222,9.547892,-21.840715,52.513184
156,1535212651,7.231236,-20.964849,54.59536,-0.787668,-1.533414,0.38841,9.812243,-24.296427,51.495022
157,1535229318,7.117463,-21.593493,55.395611,-0.822533,-1.716524,0.191719,8.677035,-32.721352,50.330879
158,1535245985,7.092085,-22.33087,56.19664,-0.448747,-1.52073,-0.267967,14.559472,-39.344742,50.936451
159,1535262652,7.304057,-22.752949,57.063526,-0.15226,-1.223805,-0.702458,30.804878,-20.107523,52.067139
160,1535279319,7.571771,-23.004429,57.989426,-0.249243,-1.162158,-0.865481,35.845959,-9.361635,53.926273
161,1535295986,7.750023,-23.202232,58.901844,0.02442,-1.051287,-1.017062,30.392031,-6.099002,52.698452
162,1535312653,7.834301,-23.460768,59.733093,-0.076503,-1.33793,-0.721213,23.065386,-10.224058,48.671932
163,1535329320,7.770576,-24.122322,60.500599,-0.203337,-1.210064,-0.492038,13.054701,-34.702114,48.317459
164,1535345987,7.538122,-24.926497,61.352188,-0.05169,-1.01128,-0.607973,5.599471,-42.757168,53.675579
165,1535362654,7.15637,-25.956518,62.145947,-0.006083,-1.261978,-0.17168,-4.066447,-56.942364,51.73365
166,1535379321,6.691444,-27.300192,62.992001,0.200428,-1.127007,-0.066482,-6.715488,-75.743034,55.936745
167,1535395988,6.486334,-28.267145,64.011002,0.356257,-0.532299,-0.257431,14.671707,-52.627426,61.553391
168,1535412655,6.453794,-28.802317,64.998878,0.08162,-0.203778,-0.309499,24.880398,-27.225876,56.510731
169,1535429322,6.329864,-29.50461,65.779602,-0.403196,-0.942337,0.136935,13.922668,-38.491882,46.494942
170,1535445989,5.99088,-30.616692,66.434158,-0.188373,-0.768996,-0.038774,-2.109531,-63.89304,42.108105
171,1535462656,5.721217,-31.583216,66.949158,-0.225853,-0.286695,-0.012374,-1.635664,-56.213276,33.390919
172,1535479323,5.625782,-32.331474,67.333923,-0.351801,-0.703183,-0.00233,5.09146,-43.968166,25.08795
173,1535495990,5.676042,-33.278103,67.738968,-0.686258,-1.420744,0.261827,14.797892,-55.765102,27.082994
174,1535512657,5.935542,-34.522289,68.394272,-0.859644,-0.421987,-0.150249,36.131828,-72.275757,41.197117
175,1535529324,6.264823,-35.471451,68.953682,-1.012796,0.395333,-0.608024,37.628834,-55.025604,34.60677
176,1535545991,6.377985,-36.052937,69.332947,-1.097659,0.203634,-0.818627,18.67664,-33.948956,23.449741
177,1535562658,6.318273,-36.362118,69.662941,-0.985613,-0.09992,-0.895755,6.668123,-17.973015,19.216751
178,1535579325,6.153332,-36.428658,69.931786,-0.806616,-0.110177,-0.833896,-1.796015,-3.874845,14.643258
179,1535595992,5.881987,-36.342911,70.095299,-0.618304,-0.193303,-0.741543,-11.949654,4.612774,8.620166
180,1535612659,5.483102,-36.170475,70.237709,-0.544054,-0.255699,-0.620974,-20.375376,9.627755,7.128937
181,1535629326,5.040291,-36.014038,70.440765,-0.283947,-0.558707,-0.463879,-20.892723,8.878462,10.224005
182,1535645993,4.753535,-35.997654,70.780434,-0.076246,-0.497521,-0.082519,-6.713596,0.990809,17.601702
183,1535662660,4.635369,-35.961704,71.103752,0.375057,-0.374313,0.052082,2.839062,2.024833,16.706968
184,1535679327,4.60415,-35.852654,71.343475,0.767349,-0.480296,0.277293,5.129933,6.047829,12.287023
185,1535695994,4.609541,-35.700741,71.501991,1.135804,-0.514917,0.456875,4.508369,8.293326,8.115381
186,1535712661,4.607498,-35.532757,71.543854,1.285212,-0.592497,0.519085,0.039412,8.801019,2.32514
187,1535729328,4.541432,-35.389999,71.483978,1.184418,-0.719526,0.450734,-7.26539,6.897111,-2.562321
188,1535745995,4.371598,-35.411362,71.358253,1.020183,-0.665638,0.306245,-15.69746,-3.173877,-5.053992
189,1535762662,4.182869,-35.388298,71.16584,0.910733,-0.532457,-0.001094,-19.073473,-0.747495,-8.56294
190,1535779329,4.001652,-35.241619,70.897324,0.616406,-0.523884,-0.12074,-21.182005,6.407614,-12.864878
191,1535795996,3.851013,-34.985741,70.607147,0.350852,-0.467746,-0.18879,-19.996876,12.899415,-14.426531
192,1535812663,3.747463,-34.658855,70.351807,0.231859,-0.250553,-0.200812,-15.865572,17.283308,-13.046668
193,1535829330,3.622533,-34.286518,70.162888,0.212714,0.00932,-0.393296,-14.789411,20.235561,-9.9873
194,1535845997,3.361061,-33.878853,70.016769,0.270042,0.215292,-0.657084,-21.457106,22.522808,-7.986658
195,1535862664,2.967809,-33.463455,69.96759,0.280625,0.208483,-0.706799,-26.067209,23.320251,-3.097997
196,1535879331,2.484951,-33.273735,70.016388,0.169809,0.093178,-0.479487,-28.181101,10.073346,2.606068
197,1535895998,2.077717,-33.146229,70.164864,0.330603,0.231051,-0.380795,-20.361481,6.539683,7.828824
198,1535912665,1.790595,-32.958591,70.375114,0.357195,0.419209,-0.146168,-11.136518,10.230602,10.856283
199,1535929332,1.509394,-32.766571,70.63588,0.338331,0.564873,0.058924,-9.159561,10.547009,13.457588
200,1535945999,1.194953,-32.581944,70.889862,0.44649,0.5807,0.086603,-11.407271,10.066554,13.204268
201,1535962666,0.827963,-32.371426,71.140953,0.42101,0.496143,-0.008788,-14.685503,11.5804,13.110723
202,1535979333,0.367299,-32.167336,71.415779,0.387395,0.53942,-0.056856,-19.5786,11.151202,14.424398
203,1535996000,-0.125627,-31.949419,71.715256,0.387938,0.561595,-0.074732,-20.770142,11.904042,15.797441
204,1536012667,-0.611472,-31.810944,72.043198,0.464005,0.417096,0.105964,-19.480976,7.032349,17.345839
205,1536029334,-1.032587,-31.724337,72.386917,0.793548,0.590168,0.493125,-15.116852,3.807381,18.175045
206,1536046001,-1.386863,-31.655462,72.785706,0.983959,0.813751,0.894439,-9.369308,2.609458,20.993315
207,1536062668,-1.750253,-31.667677,73.272812,1.327956,1.053411,1.147392,-7.11575,-2.448554,25.380905
208,1536079335,-2.159415,-31.74922,73.832344,1.584047,1.244346,1.193691,-7.520258,-6.826101,28.888971
209,1536096002,-2.643057,-31.899784,74.396126,1.907692,1.302837,1.254075,-11.751945,-11.107975,28.825407
210,1536112669,-3.10471,-32.067242,74.890099,2.180272,1.096072,1.411276,-12.514957,-12.081256,25.061182
211,1536129336,-3.448827,-32.258667,75.230423,2.268562,0.941001,1.717494,-10.219604,-13.155683,17.022535
212,1536146003,-3.680437,-32.63562,75.475571,2.042706,0.841951,1.998194,-6.37115,-23.96525,11.36452
213,1536162670,-3.821365,-33.218384,75.678345,1.769524,0.824512,1.898115,-2.139375,-36.107704,8.251856
214,1536179337,-3.977619,-33.966885,75.862442,1.44115,0.782095,1.441236,-3.50597,-45.91629,6.443647
215,1536196004,-4.179497,-34.77969,76.004341,1.187943,0.596141,1.067682,-7.506226,-49.570599,3.836848
216,1536212671,-4.356584,-35.595142,76.080956,0.827025,0.272875,0.861416,-8.14345,-49.453537,0.37991
217,1536229338,-4.416287,-36.419628,76.115944,0.48902,0.070297,0.786928,-2.493239,-49.81126,-1.83208
218,1536246005,-4.374289,-37.270294,76.157921,0.245363,0.098365,0.613043,3.898322,-51.389969,-1.653213
219,1536262672,-4.290087,-38.168171,76.246727,0.37631,0.112752,0.478917,8.182096,-54.375587,0.375813
220,1536279339,-4.161264,-39.129799,76.35228,0.519036,0.084419,0.197077,11.561619,-58.233212,0.915223
221,1536296006,-3.98733,-40.140491,76.423004,0.653192,0.085048,-0.125347,13.030083,-61.038937,-0.830452
222,1536312673,-3.862319,-41.144409,76.516548,0.595227,-0.005541,-0.384431,11.060512,-60.689606,0.329505
223,1536329340,-3.788378,-42.177044,76.619781,0.41139,-0.013467,-0.560676,8.472012,-62.425163,0.669429
224,1536346007,-3.724021,-43.204647,76.765968,0.468226,-0.035384,-0.557743,9.735312,-62.237831,2.56906
225,1536362674,-3.608325,-44.227211,76.934578,0.504377,-0.028503,-0.675175,13.869007,-61.982773,3.534225
226,1536379341,-3.437398,-45.240376,77.0942,0.591408,-0.035888,-0.873278,16.941521,-61.375431,3.200263
227,1536396008,-3.165709,-46.191807,77.182419,0.705529,-0.164943,-1.098679,20.049314,-57.479259,0.531093
228,1536412675,-2.853435,-47.081402,77.238678,0.61809,-0.234226,-1.257557,21.165155,-53.698357,-0.383811
229,1536429342,-2.577818,-47.900764,77.27832,0.551764,-0.342759,-1.30733,18.280672,-49.459743,-0.639978
230,1536446009,-2.323442,-48.62302,77.309502,0.495258,-0.397023,-1.307513,16.665218,-43.632416,-0.541674
231,1536462676,-2.011319,-49.225651,77.318542,0.561387,-0.512473,-1.228523,19.156105,-36.440548,-0.962941
232,1536479343,-1.563883,-49.662041,77.217995,0.516699,-0.658593,-1.220119,22.302462,-26.357758,-4.707097
233,1536496010,-1.042068,-49.920891,77.055298,0.342014,-0.815693,-0.980479,23.914465,-15.713144,-6.640676
234,1536512677,-0.539136,-50.111614,76.917847,0.142853,-1.012399,-0.678473,23.933165,-11.730302,-5.459682
235,1536529344,-0.132997,-50.360161,76.880745,0.138874,-1.218748,-0.585309,22.751057,-15.305818,-1.520579
236,1536546011,0.127152,-50.691429,77.026093,0.285678,-1.193887,-0.585258,22.455242,-20.326368,5.524478
237,1536562678,0.197499,-51.144135,77.317474,0.637076,-1.159935,-0.771918,17.929098,-27.627602,11.066365
238,1536579345,0.130081,-51.70919,77.658836,1.016028,-0.987307,-1.038402,12.138043,-34.400776,12.812033
239,1536596012,0.067786,-52.264175,77.893585,1.28968,-0.853145,-1.377192,7.566428,-33.845772,8.641002
240,1536612679,0.082819,-52.706627,77.992065,1.240642,-0.772669,-1.481455,5.838949,-27.121107,3.503001
241,1536629346,0.17709,-53.040249,77.929169,1.051957,-0.806715,-1.456805,2.936129,-20.613928,-2.40058
242,1536646013,0.33907,-53.263802,77.757431,0.865991,-0.948574,-1.2536,1.800273,-14.046642,-6.315226
243,1536662680,0.552889,-53.446976,77.534386,0.840481,-0.991017,-1.039762,2.452501,-11.679424,-8.122063
244,1536679347,0.848177,-53.581402,77.222771,0.931417,-0.855902,-0.82548,3.078066,-8.852741,-11.263359
245,1536696014,1.192966,-53.711342,76.792648,0.853937,-0.78186,-0.729447,0.333177,-8.7338,-15.423587
246,1536712681,1.536733,-53.844719,76.241974,0.651558,-0.600624,-0.555084,-5.568877,-9.143955,-19.617056
247,1536729348,1.941666,-53.837093,75.538025,0.53687,-0.573962,-0.324008,-9.320855,-0.982915,-25.224857
248,1536746015,2.457217,-53.636734,74.721237,0.22683,-1.05452,0.062276,-8.075252,10.213696,-29.735771
249,1536762682,2.991665,-53.426239,73.92157,-0.150746,-1.270092,0.38868,-5.987348,10.545785,-29.396093
250,1536779349,3.42484,-53.308689,73.240501,-0.408187,-1.105461,0.488095,-6.250654,4.923996,-25.039536
251,1536796016,3.666904,-53.324669,72.702225,-0.349452,-1.000437,0.281978,-10.815673,-2.940573,-19.483269
252,1536812683,3.830123,-53.411057,72.222855,-0.019679,-1.049384,-0.084506,-12.723514,-7.120624,-17.062761
253,1536829350,3.987148,-53.52758,71.733231,0.099138,-1.072478,-0.323738,-13.600998,-9.020836,-17.244629
254,1536846017,4.095199,-53.676445,71.201469,0.192336,-1.073164,-0.607676,-18.594246,-11.124779,-18.534517
255,1536862684,4.188198,-53.845333,70.583328,0.179619,-1.039324,-0.888033,-23.70739,-12.594852,-21.421576
256,1536879351,4.279707,-53.994968,69.871094,-0.017597,-0.933706,-1.260213,-28.397736,-11.737929,-24.728981
257,1536896018,4.471882,-54.078632,69.007835,-0.243623,-0.942585,-1.568085,-29.726854,-8.270382,-30.242302
258,1536912685,4.815689,-54.066772,67.995659,-0.659123,-0.987754,-1.948255,-27.870325,-3.140805,-35.866493
259,1536929352,5.257821,-53.929264,66.89875,-1.107511,-1.006683,-2.263948,-26.029791,3.828405,-39.537239
260,1536946019,5.718891,-53.67152,65.781982,-1.471159,-1.031381,-2.412298,-25.723572,10.579827,-41.119537
261,1536962686,6.149378,-53.301197,64.691681,-1.805068,-0.975739,-2.320767,-26.067366,17.004784,-41.222439
262,1536979353,6.49774,-52.835735,63.689636,-2.033459,-0.873446,-2.080093,-26.490971,22.657602,-39.146019
263,1536996020,6.691242,-52.359684,62.857452,-2.321067,-0.78745,-1.74183,-27.408512,23.720516,-33.521412
264,1537012687,6.727192,-51.966518,62.272305,-2.136026,-0.653422,-1.569411,-24.953032,19.686922,-24.202408
265,1537029354,6.757003,-51.524227,61.781078,-1.611436,-0.528711,-1.476782,-20.768671,22.936281,-21.245213
266,1537046021,6.833359,-50.968082,61.311413,-1.116755,-0.722361,-1.310804,-16.823105,29.739939,-21.428627
267,1537062688,6.92498,-50.340775,60.784355,-0.759629,-0.987571,-1.073025,-18.394665,33.619801,-24.352285
268,1537079355,6.978406,-49.654404,60.195782,-0.691491,-1.387755,-0.760768,-23.266434,36.755047,-27.439306
269,1537096022,6.976842,-48.998745,59.568268,-0.766309,-1.8399,-0.504896,-28.042614,34.646458,-29.046217
270,1537112689,6.966518,-48.375988,58.961834,-0.622586,-2.000275,-0.329513,-27.304193,32.692585,-28.280174
271,1537129356,7.026496,-47.773361,58.346447,-0.230672,-1.973018,-0.418208,-23.180182,31.341484,-28.788227
272,1537146023,7.134764,-47.105145,57.654427,0.07522,-1.863799,-0.748294,-23.339468,34.731911,-32.711723
273,1537162690,7.189924,-46.360245,56.852165,-0.021196,-1.726208,-1.071778,-30.929302,38.60125,-38.212925
274,1537179357,7.158332,-45.531628,55.977234,-0.489857,-1.643162,-1.188837,-38.756565,43.105087,-42.338852
275,1537196024,7.023509,-44.646263,55.145031,-0.856268,-1.501958,-1.026839,-42.535477,46.663952,-41.44706
276,1537212691,6.846978,-43.719841,54.435669,-0.667297,-1.626749,-0.837988,-39.307255,49.750496,-36.90567
277,1537229358,6.704349,-42.781288,53.748066,-0.457544,-1.887253,-0.887165,-35.836792,50.59248,-36.368073
278,1537246025,6.48911,-41.883751,53.02813,-0.497574,-1.785068,-1.289979,-40.959061,48.002613,-37.786606
279,1537262692,6.143689,-41.001339,52.243404,-0.747094,-1.521708,-1.63133,-50.792171,46.877831,-40.780731
280,1537279359,5.681262,-40.131439,51.45668,-1.147969,-1.264294,-2.119338,-57.308205,46.325867,-40.913235
281,1537296026,5.097486,-39.257938,50.72982,-1.261315,-0.783944,-2.652314,-61.724876,47.0947,-38.191975
282,1537312693,4.427548,-38.222935,50.022163,-1.291433,-0.783763,-3.118484,-65.607857,57.176224,-38.008125
283,1537329360,3.764554,-36.984978,49.354977,-1.436483,-0.795208,-3.358575,-63.043522,69.837051,-36.770336
284,1537346027,3.160585,-35.532917,48.660286,-1.491782,-0.971738,-3.413881,-59.727711,82.915718,-38.620811
285,1537362694,2.69138,-33.796902,47.934029,-1.813262,-1.113673,-3.149772,-51.768444,100.139488,-40.892715
286,1537379361,2.33011,-31.754881,47.179821,-2.289489,-1.457862,-2.786332,-45.000221,118.632256,-43.119617
287,1537396028,2.146993,-29.350357,46.427742,-2.644884,-1.537686,-1.8811,-32.748264,140.467178,-44.15517
288,1537412695,2.225289,-26.677248,45.704205,-2.326572,-1.273609,-0.530037,-14.517707,156.552094,-44.035961
289,1537429362,2.631874,-23.898453,45.019321,-1.86841,-1.032446,0.455812,8.005769,162.684296,-43.728653
290,1537446029,3.244517,-21.246332,44.379326,-1.404718,-0.643471,0.747971,23.172209,154.737564,-43.02956
291,1537462696,3.840551,-18.843361,43.83194,-1.092299,-0.578698,0.352509,25.643827,139.613068,-39.086979
292,1537479363,4.22126,-16.637613,43.36948,-0.825223,-0.735764,-0.30914,15.514467,127.763664,-34.981899
293,1537496030,4.362188,-14.311099,42.769066,-1.191026,-1.533457,-0.223805,-0.032953,134.194229,-44.327438
294,1537512697,4.402442,-11.878634,42.118908,-1.540546,-0.985405,0.427585,-5.284348,140.173203,-48.233913
295,1537529364,4.336125,-9.508749,41.469181,-1.536815,-0.178489,0.811052,-10.085222,136.383881,-48.168991
296,1537546031,4.249759,-7.273231,40.935921,-1.514139,0.362774,0.915494,-8.765948,128.890579,-40.704334
297,1537562698,4.123828,-5.256532,40.627129,-1.167963,0.618432,0.471291,-8.557074,116.831261,-26.27256
298,1537579365,3.851583,-3.420054,40.566994,-0.421472,0.529639,-0.17309,-15.658438,107.16832,-10.30511
299,1537596032,3.349931,-1.685264,40.743431,0.574713,0.295126,-0.792756,-28.738373,102.053268,4.96762
300,1537612699,2.592744,-0.032777,41.047554,1.362001,-0.249463,-1.153356,-44.306408,97.494217,14.031081
301,1537629366,1.67455,1.56385,41.333542,1.919962,-1.203321,-0.965737,-54.477211,93.932869,14.528092
302,1537646033,0.683671,3.082773,41.60041,2.05187,-1.369557,-0.732429,-59.226067,89.028732,15.082459
303,1537662700,-0.468374,4.563789,42.000454,2.232449,-0.640237,-0.934402,-69.810349,86.5047,24.760242
304,1537679367,-2.013253,5.987116,42.627705,2.364607,-0.498847,-0.959534,-95.226204,82.194153,40.293747
305,1537696034,-4.031813,7.356627,43.460617,2.552937,-0.915766,-0.493479,-125.985016,77.08815,54.861462
306,1537712701,-6.633389,8.420609,44.408348,2.619931,-1.624085,-0.200696,-162.944412,55.981598,62.954258
307,1537729368,-9.751337,9.243593,45.434696,2.652634,-2.248111,-0.233134,-195.536377,37.832901,68.177673
308,1537746035,-13.234688,10.066873,46.526684,2.074647,-2.502411,0.018281,-218.937088,33.11261,74.018784
309,1537762702,-16.861591,11.107657,47.627007,1.095821,-3.216446,0.852735,-228.642456,40.95253,79.71608
310,1537779369,-20.435442,12.39278,48.670105,0.097632,-2.977792,2.119605,-226.039566,50.832706,83.493446
311,1537796036,-23.852259,14.15078,49.406029,-0.241286,-1.733765,2.637374,-214.003601,78.732872,80.269051
312,1537812703,-26.714003,16.305151,49.877949,-0.788954,-0.167533,3.56857,-178.039337,102.343269,80.536301
313,1537829370,-28.966511,18.406521,50.346519,-1.10017,1.149827,3.36359,-142.527847,96.03923,83.153008
314,1537846037,-30.599899,20.32485,50.744236,-0.907236,1.610554,2.754913,-105.023537,85.803902,77.170982
315,1537862704,-31.599249,22.09333,51.154129,-1.162285,1.666702,2.326489,-68.081764,76.140045,74.839989
316,1537879371,-32.089828,23.674168,51.814709,-1.092906,1.441569,1.648007,-44.183472,58.474602,81.41156
317,1537896038,-32.241158,25.22559,52.748398,-0.723193,1.079024,1.128563,-31.708866,48.85368,93.031487
318,1537912705,-32.1432,26.753782,54.127846,-0.675973,0.762282,1.339501,-29.929377,35.195511,112.084885
319,1537929372,-31.873556,28.275625,55.988121,-0.103494,0.57338,1.128941,-35.021488,22.213995,132.58374
320,1537946039,-31.579147,29.919218,58.011112,0.544494,0.597334,1.519738,-41.084232,25.384584,142.290207
321,1537962706,-31.279812,31.524176,60.13789,1.084829,0.894412,1.699461,-47.02314,22.280333,144.024414
322,1537979373,-31.021645,33.011501,62.19405,1.670426,1.208843,1.721101,-50.225803,19.777693,135.640411
323,1537996040,-30.762386,34.300602,64.057587,2.104701,1.440088,1.720859,-46.298752,16.031033,119.785835
324,1538012707,-30.522825,35.341621,65.579277,2.300033,1.567975,1.566317,-37.661911,13.064714,96.547943
325,1538029374,-30.300966,36.182697,66.761299,2.031192,1.705464,1.411309,-28.032461,12.006239,75.428345
326,1538046041,-30.084013,36.871826,67.717484,1.797484,1.896655,1.330741,-21.017647,10.260339,60.91449
327,1538062708,-29.802107,37.425686,68.575111,1.649073,2.179579,1.316789,-14.036366,6.127236,52.420918
328,1538079375,-29.568033,37.826931,69.285454,1.643385,2.516247,1.096853,-11.839125,2.105282,41.560062
329,1538096042,-29.441267,38.004017,69.865517,1.610517,2.62968,0.87456,-13.626649,-6.252648,29.459135
330,1538112709,-29.446039,37.96204,70.289536,1.576312,2.448567,0.791092,-15.766233,-13.908039,16.569815
331,1538129376,-29.543772,37.76466,70.577232,1.604905,2.235033,0.910161,-16.25543,-18.766172,6.391427
332,1538146043,-29.576416,37.482399,70.85434,1.458463,2.127931,1.405468,-11.875515,-22.875093,3.476753
333,1538162710,-29.431921,37.067593,71.358017,1.215314,2.221745,1.458033,-9.372513,-35.055798,9.06158
334,1538179377,-29.138147,36.435009,72.18367,1.223672,2.271735,1.721082,-11.733534,-53.975136,16.451096
335,1538196044,-28.875389,35.606762,73.076393,1.427779,2.396933,1.475087,-15.430014,-65.827202,14.193682
336,1538212711,-28.811518,34.633251,73.862732,1.138838,2.216658,1.289347,-22.977093,-71.040482,6.035809
337,1538229378,-28.928106,33.54163,74.554199,0.950382,1.96156,1.299226,-29.891647,-75.115929,-1.121273
338,1538246045,-29.195845,32.380714,75.17868,0.945132,1.630123,1.432123,-36.072124,-77.244667,-5.945181
339,1538262712,-29.532888,31.079285,75.835182,1.219247,1.383504,2.008947,-40.538521,-85.504211,-8.68261
340,1538279379,-29.84676,29.541224,76.48539,1.460401,1.223917,2.360653,-38.096451,-97.817017,-16.038145
341,1538296046,-30.063635,27.733919,77.163101,1.29723,0.965699,2.310886,-32.043812,-112.688751,-22.807882
342,1538312713,-30.381157,25.810925,77.716721,1.053021,0.688834,1.568334,-33.527344,-115.500496,-32.036465
343,1538329380,-30.92849,23.955467,78.091454,0.611665,0.651933,1.126534,-41.787476,-107.0131,-38.808056
344,1538346047,-31.595407,22.1119,78.56955,0.589235,0.638705,1.305062,-50.713757,-109.070663,-34.437534
345,1538362714,-32.404766,20.227465,79.134399,1.175906,0.782518,1.950564,-60.262863,-113.424309,-32.725941
346,1538379381,-33.44949,18.038712,79.68972,1.97419,0.927218,3.341893,-73.041122,-128.102356,-44.575413
347,1538396048,-34.723549,15.598829,80.135551,1.850845,0.818352,3.480667,-83.574936,-136.312851,-60.453419
348,1538412715,-35.987411,13.128355,80.635429,0.908402,0.25361,3.376229,-82.626968,-138.387726,-61.691082
349,1538429382,-37.160332,10.742122,81.306679,0.926824,0.14201,3.286605,-78.043877,-139.129303,-53.294697
350,1538446049,-38.401829,8.3164,81.982681,1.224086,0.081249,3.830271,-80.525574,-140.194748,-57.195873
351,1538462716,-39.739513,5.612918,82.55761,1.431324,-0.137544,5.104825,-83.739594,-148.161682,-75.31295
352,1538479383,-41.083096,2.526975,82.928818,1.180756,-0.476843,5.572824,-81.460663,-156.021896,-102.794731
353,1538496050,-42.533546,-0.789233,83.163452,0.042915,-1.052877,4.821926,-86.481674,-158.327728,-121.859444
354,1538512717,-44.016247,-4.032913,83.340096,-0.899454,-1.539281,4.035358,-87.761917,-149.612411,-125.444542
355,1538529384,-45.411602,-7.240022,83.583389,-1.548972,-1.963928,3.981131,-81.556137,-147.660233,-124.843445
356,1538546051,-46.79731,-10.597083,83.965759,-1.89706,-2.106829,3.763644,-78.882622,-156.739258,-129.262634
357,1538562718,-48.24324,-14.111727,84.600128,-2.285845,-2.666409,3.423087,-77.939041,-170.649048,-130.294678
358,1538579385,-49.96159,-17.748632,85.515259,-2.57934,-3.127744,2.680745,-87.383423,-183.675873,-130.312088
359,1538596052,-52.181049,-21.155296,86.663948,-3.273143,-3.204811,1.654222,-109.592102,-179.993561,-118.174927
360,1538612719,-55.002483,-24.204372,88.250252,-4.008247,-2.936806,0.878338,-132.003403,-180.368698,-95.181129
361,1538629386,-58.163448,-27.253771,90.374405,-4.824876,-2.405115,0.119519,-133.791595,-197.80777,-89.610878
362,1538646053,-61.529076,-30.375389,93.029099,-6.150674,-2.430897,-0.324904,-124.694969,-216.061752,-92.009789
363,1538662720,-65.516052,-33.255939,96.451164,-8.09979,-3.231873,0.739379,-130.590988,-234.630447,-77.104584
364,1538679387,-70.520805,-35.721622,100.972733,-10.486585,-2.429816,0.799895,-146.374283,-264.269226,-53.698986
365,1538696054,-75.986115,-37.725552,106.534309,-13.258424,-2.494377,0.340185,-128.247208,-292.441956,-38.258667
366,1538712721,-81.665298,-39.177094,113.563683,-13.394178,-2.183455,-2.049389,-78.51358,-342.737396,-21.549576
367,1538729388,-87.597504,-39.850937,121.745445,-10.724317,-2.964444,-4.704657,-43.780224,-382.816925,-4.864259
368,1538746055,-93.599174,-39.68288,130.507523,-7.362842,-3.904724,-6.225893,-24.142748,-406.31546,5.849227
369,1538762722,-99.314804,-38.7477,139.214279,-4.138698,-3.981052,-7.436611,-13.111974,-410.779114,10.229423
370,1538779389,-104.56498,-37.15765,147.571762,-1.94107,-3.599262,-8.326263,-7.175792,-408.994904,11.543281
371,1538796056,-109.263138,-34.812935,155.595474,0.257731,-3.005939,-9.384365,0.365941,-416.126678,21.277512
372,1538812723,-113.11071,-31.589447,163.077728,1.822661,-2.009955,-10.304126,14.297233,-422.70285,44.601727
373,1538829390,-115.851402,-27.430054,169.804367,3.834359,-1.306159,-10.635798,33.608906,-425.647644,81.657883
374,1538846057,-117.261833,-22.597879,175.562531,5.304763,-0.068128,-10.8304,60.59951,-412.227844,119.54644
375,1538862724,-116.660683,-17.391317,-179.699631,5.943639,1.102257,-10.577795,132.253723,-382.231781,157.643234
376,1538879391,-113.892799,-12.285997,-175.969604,6.176883,1.401796,-10.426557,222.258499,-328.80658,185.112595
377,1538896058,-109.296638,-7.146905,-172.735474,6.479064,-0.13056,-9.573745,307.315735,-293.572723,216.95047
378,1538912725,-103.658813,-2.268723,-169.628006,6.241368,-1.375663,-6.968249,352.316223,-263.317657,228.689728
379,1538929392,-97.743103,2.080389,-166.269135,5.590439,-2.651177,-4.479031,353.982178,-248.454285,219.742142
380,1538946059,-92.365005,6.045058,-162.57576,4.541674,-1.63542,-2.832841,305.648651,-242.986176,218.241547
381,1538962726,-88.024055,9.794882,-158.968887,4.219218,0.004921,-1.905643,229.31691,-216.809708,225.03598
382,1538979393,-84.549179,13.383069,-155.807892,4.603243,1.065381,0.242247,169.134659,-173.021622,227.65509
383,1538996060,-81.585388,16.610914,-153.097305,4.524361,1.002754,2.49437,134.554092,-133.999771,211.967819
384,1539012727,-79.238083,19.864115,-150.253021,4.907459,0.020536,1.637355,86.277534,-128.645294,220.148697
385,1539029394,-77.12394,22.973785,-147.091187,5.413672,-2.135852,1.305653,56.409561,-135.909775,219.419037
386,1539046061,-74.569054,26.210955,-143.647446,6.11439,-1.907142,-0.334126,66.051071,-135.881516,234.857147
387,1539062728,-71.501289,29.466492,-140.758194,5.410111,-1.217859,0.597735,101.781403,-90.735878,232.117722
388,1539079395,-67.426178,32.354359,-138.215836,4.277862,-1.483678,3.167513,164.768829,-62.787083,208.698212
389,1539096062,-62.135761,34.794273,-135.258392,3.120635,-1.660823,3.555559,217.86142,-72.299042,195.93071
390,1539112729,-55.952263,36.521679,-131.461563,2.122423,-1.736959,2.203534,236.735016,-106.253975,184.573257
391,1539129396,-49.895454,37.534184,-127.301598,0.498045,-1.321625,0.9825,211.629501,-123.080856,169.093887
392,1539146063,-44.319874,38.055214,-123.24765,-0.603329,-0.362381,0.46623,184.055008,-120.166222,154.255936
393,1539162730,-39.355679,38.004471,-119.318054,-1.409722,-0.13899,-0.3518,151.266113,-126.68602,136.905167
394,1539179397,-34.973186,37.201176,-115.447395,-1.924736,-1.053579,-1.703581,120.002884,-150.025787,118.132027
395,1539196064,-30.768219,35.52256,-111.526596,-1.673255,-2.616588,-2.682302,111.64817,-187.798096,105.162354
396,1539212731,-26.756361,33.171822,-107.831505,-2.037495,-2.748025,-3.636023,114.498711,-212.024353,93.421112
397,1539229398,-23.338989,30.940365,-104.486115,-2.245677,-1.457607,-3.719194,97.485237,-193.550232,98.35321
398,1539246065,-20.787169,29.639975,-101.534981,-2.112385,0.333525,-3.23863,62.921253,-129.929886,113.357948
399,1539262732,-19.200813,30.274708,-99.033562,-1.465235,1.227607,-0.718753,19.491739,-8.86566,136.17717
400,1539279399,-18.495342,33.515976,-96.524811,0.13823,0.269523,3.358839,-37.874508,142.529144,184.702545
401,1539296066,-18.551001,38.106049,-93.916199,-0.755345,-0.655962,8.440248,-95.548737,220.56749,208.742325
402,1539312733,-19.080616,42.215359,-91.794434,-0.908244,-2.682328,7.259333,-114.456993,201.792114,172.494568
403,1539329400,-20.255449,44.522121,-90.723137,-0.679391,-3.604905,5.752285,-115.190498,114.450172,91.495079
404,1539346067,-21.725777,44.39085,-90.841957,-0.131548,-2.594922,4.178069,-83.807259,-5.658038,-6.595102
405,1539362734,-23.105898,42.31604,-91.638847,0.665148,-0.143472,2.82401,-50.558453,-101.957588,-78.571091
406,1539379401,-24.153276,39.474117,-92.618019,0.342951,1.600346,0.803049,-24.931297,-138.595688,-107.980438
407,1539396068,-25.384085,37.063454,-93.898949,-0.74531,2.638851,-0.946547,-26.76646,-106.306587,-114.348915
408,1539412735,-27.085665,36.058159,-95.508461,-1.100834,3.627228,-0.606383,-45.046635,-20.163172,-95.23494
409,1539429402,-29.370617,36.719772,-97.170891,0.365478,2.896171,-1.566697,-78.348389,72.498894,-51.032795
410,1539446069,-31.867676,38.54797,-98.741356,3.705661,0.61522,-3.365309,-92.681656,131.873627,-7.493362
411,1539462736,-33.611446,40.823524,-99.932236,5.614363,-1.478331,-4.707687,-59.447926,144.023743,28.368744
412,1539479403,-34.421867,43.080887,-100.576302,5.256212,-2.549291,-4.456999,-23.336309,127.808739,52.651913
413,1539496070,-34.895458,45.107998,-101.008621,2.513067,-2.54356,-2.32861,-10.997762,110.150047,54.490849
414,1539512737,-35.520748,46.791855,-101.512383,0.828729,-2.43012,-0.116696,-16.468214,94.21122,41.701027
415,1539529404,-36.134872,48.079865,-102.013588,-0.621902,-2.327941,1.65126,-15.393553,74.135941,29.362486
416,1539546071,-36.669155,48.922916,-102.46357,-1.93736,-2.006346,2.35715,-12.537254,50.914238,16.26149
417,1539562738,-37.330891,49.174709,-102.88839,-2.655673,-1.610904,3.148922,-21.139935,21.703306,-3.568821
418,1539579405,-38.002224,48.668934,-103.238571,-2.583781,-1.21418,3.004148,-25.103773,-16.017982,-28.738838
419,1539596072,-38.80143,47.451088,-103.680794,-2.122719,-0.899417,1.698605,-28.845856,-46.708981,-58.497074
420,1539612739,-39.746426,45.819893,-104.211426,-1.133452,-0.480637,0.326049,-34.151463,-62.425606,-78.040703
421,1539629406,-40.742947,44.065487,-104.744949,-0.149718,-0.008112,-0.94615,-37.751163,-66.250565,-84.432892
422,1539646073,-41.676872,42.591797,-105.237648,0.280701,1.141623,-1.854324,-36.303894,-52.935173,-73.553383
423,1539662740,-42.599953,41.857693,-105.773605,-0.165941,1.974695,-3.152755,-34.301285,-17.312227,-46.356003
424,1539679407,-43.794739,41.933353,-106.524155,-0.198403,2.009228,-3.076343,-42.105522,25.580524,-20.513237
425,1539696074,-45.085247,42.52282,-107.399887,0.499899,1.486392,-1.937541,-42.569641,51.77911,-2.247665
426,1539712741,-46.121433,43.29335,-108.264938,0.824331,0.710323,-0.814569,-27.266415,58.768703,7.155597
427,1539729408,-46.911346,44.016808,-109.087509,0.457476,-0.040941,-0.045768,-13.74826,55.026001,7.601597
428,1539746075,-47.565121,44.5518,-109.870941,-0.173406,-0.678424,0.219608,-6.82467,45.740093,1.373255
429,1539762742,-48.195942,44.825569,-110.638329,-0.587383,-1.063637,-0.012526,-5.885301,34.528709,-9.121223
430,1539779409,-48.824409,44.836128,-111.372375,-0.668103,-1.314928,-0.412983,-7.068873,23.041498,-19.561239
431,1539796076,-49.281647,44.645401,-111.924713,-0.439022,-1.50744,-1.003983,-4.517476,9.495937,-23.395784
432,1539812743,-49.528301,44.377747,-112.241814,-0.229213,-1.385947,-1.586507,-1.873776,-0.937772,-20.332157
433,1539829410,-49.624928,44.185387,-112.366135,-0.246776,-0.844751,-1.602537,-1.000983,-4.21351,-11.544918
434,1539846077,-49.679779,44.126713,-112.436348,-0.432158,-0.332272,-1.120382,-0.760851,-0.777409,-3.930794
435,1539862744,-49.751926,44.145348,-112.520348,-0.598322,-0.044627,-0.731388,-1.207511,2.670566,-0.77618
436,1539879411,-49.917747,44.195068,-112.682396,-0.54333,0.070861,-0.380227,-3.543582,6.428642,-1.512968
437,1539896078,-50.032036,44.261669,-112.821999,-0.189646,-0.029046,-0.035853,-1.36467,6.32888,-0.099544
438,1539912745,-50.097393,44.349579,-112.946678,-0.010223,-0.220449,-0.28943,0.968743,6.644326,1.302156
439,1539929412,-50.154926,44.438858,-113.065132,0.004677,-0.487974,-0.322314,1.197195,6.477023,1.540085
440,1539946079,-50.172699,44.467873,-113.143181,0.037115,-0.504612,-0.292747,1.89751,2.822654,-0.123594
441,1539962746,-50.123917,44.406658,-113.174706,-0.1224,-0.418088,-0.236602,3.944016,-2.180653,-3.008903
442,1539979413,-50.065197,44.25684,-113.232803,-0.327184,-0.232632,-0.140441,5.66313,-4.725058,-7.819291
443,1539996080,-50.016869,44.105312,-113.310303,-0.339606,-0.126029,-0.26096,5.85821,-4.163321,-8.437351
444,1540012747,-49.991756,44.04768,-113.415031,-0.300681,-0.121502,-0.5362,5.609279,0.34679,-4.879618
445,1540029414,-49.960251,44.058567,-113.50428,-0.132137,-0.27186,-0.642425,5.358824,2.469186,-1.310397
446,1540046081,-49.896973,44.080372,-113.554459,-0.084449,-0.430561,-0.645171,5.645917,1.59304,0.269119
447,1540062748,-49.79237,44.073406,-113.562225,-0.086804,-0.403098,-0.353534,6.365366,-0.922006,0.121385
448,1540079415,-49.696514,44.034004,-113.582764,-0.134811,-0.131951,-0.137802,6.381475,-1.765727,-1.723005
449,1540096082,-49.629345,44.011322,-113.647003,-0.108151,0.08718,0.034704,6.494338,0.310676,-2.181345
450,1540112749,-49.561375,44.021725,-113.72084,-0.029126,-0.003655,-0.069836,6.955379,1.902313,-0.951755
451,1540129416,-49.442474,44.039753,-113.777245,-0.175256,-0.236283,-0.42474,9.297253,1.618012,-0.126911
452,1540146083,-49.295937,44.030773,-113.830811,-0.230839,-0.44501,-0.559018,10.846604,0.46206,-1.288089
453,1540162750,-49.201088,44.006149,-113.904556,-0.321324,-0.577996,-0.519238,8.594953,0.501132,-2.571733
454,1540179417,-49.167812,43.974953,-113.986557,-0.259381,-0.609292,-0.102954,5.248382,0.505025,-3.100341
455,1540196084,-49.062096,43.913303,-113.972771,-0.231807,-0.638786,0.092821,5.610559,-3.826296,-1.775691
456,1540212751,-48.852665,43.780827,-113.86676,-0.255494,-0.681164,-0.026932,8.009665,-9.638411,-2.349582
457,1540229418,-48.566643,43.531708,-113.682526,-0.19137,-0.756729,0.074944,9.386651,-16.835531,-5.312863
458,1540246085,-48.228474,43.114799,-113.375206,-0.100631,-0.888298,0.353685,7.501835,-27.60668,-9.15192
459,1540262752,-47.81422,42.421818,-112.938065,-0.13761,-0.964826,0.728604,6.915681,-43.094112,-17.377968
460,1540279419,-47.358894,41.402756,-112.398293,-0.220483,-0.975728,0.971087,5.563876,-60.008614,-28.21895
461,1540296086,-46.828999,40.124859,-111.735481,-0.297037,-1.115768,0.655159,5.714428,-75.243073,-34.973446
462,1540312753,-46.323738,38.693203,-111.005074,-0.369784,-1.191617,0.484344,2.393151,-84.626572,-38.409538
463,1540329420,-45.859352,37.03614,-110.170906,-0.325688,-1.31249,0.997422,-2.944056,-98.414314,-43.500782
464,1540346087,-45.544834,34.898815,-109.226196,-0.035029,-1.250386,1.969804,-14.490479,-123.401176,-58.99028
465,1540362754,-45.166218,32.167603,-108.090942,0.076451,-1.415874,1.950527,-14.96447,-156.568085,-75.91098
466,1540379421,-44.845921,29.035053,-106.962463,-0.213698,-1.13765,1.120657,-15.279893,-175.13237,-90.899956
467,1540396088,-44.753059,25.738041,-105.877281,-0.65322,-0.45453,0.916883,-24.373022,-182.153687,-97.525963
468,1540412755,-45.158607,22.298441,-104.954201,-0.815112,0.408951,1.187183,-46.81686,-182.863449,-109.153854
469,1540429422,-45.750595,18.740475,-104.184029,-0.668559,1.027665,0.432014,-51.605022,-181.701904,-120.913956
470,1540446089,-46.444794,15.352269,-103.650635,-0.59441,1.472091,-0.695558,-50.870384,-164.15274,-124.395424
471,1540462756,-47.199055,12.329256,-103.264954,-0.872484,1.587576,-1.224194,-50.584393,-141.663727,-116.045296
472,1540479423,-48.251961,9.691538,-103.158546,-1.411482,1.965853,-1.315176,-64.143738,-112.292412,-112.058784
473,1540496090,-49.342754,7.523441,-103.421806,-1.387785,2.354206,-2.579882,-62.793797,-75.162933,-107.353333
474,1540512757,-50.358532,6.172744,-104.425377,-1.854847,2.859332,-4.462213,-53.448891,-7.804287,-99.71199
475,1540529424,-51.469875,5.902911,-106.188538,-1.981063,3.62366,-5.399828,-55.208008,70.175369,-78.143242
476,1540546091,-52.629463,6.976969,-108.654343,-1.659016,4.078076,-5.231683,-52.612949,154.253067,-38.891907
477,1540562758,-53.786381,9.31067,-111.406746,-0.861016,2.836568,-5.252802,-45.637356,213.446747,14.857917
478,1540579425,-54.98391,12.541451,-114.275543,0.646283,0.389845,-3.595304,-38.840057,248.934601,59.750538
479,1540596092,-55.913406,15.840781,-116.643936,2.112808,-2.846963,-1.196836,-20.596069,224.39917,85.479706
480,1540612759,-55.950424,18.420959,-117.999825,2.799222,-6.566153,0.596316,21.992796,149.797318,85.287132
481,1540629426,-54.954437,19.489662,-117.950851,2.211457,-9.677402,2.543557,58.977695,32.777416,55.0345
482,1540646093,-53.096642,18.393354,-116.360809,2.091927,-11.928111,4.673348,80.598892,-112.934273,0.5125
483,1540662760,-50.580238,15.267541,-113.512299,2.363084,-10.068966,5.900285,101.491684,-245.739365,-45.478298
484,1540679427,-47.93108,11.10937,-109.941566,0.836419,-5.321417,5.29522,110.00589,-322.05835,-51.808491
485,1540696094,-46.042816,6.456727,-106.311752,-0.267714,-1.386129,4.043306,80.062103,-348.96402,-56.133034
486,1540712761,-45.097805,1.481075,-102.839279,-0.045279,1.628847,2.136137,42.451073,-358.555298,-66.498886
487,1540729428,-44.400166,-3.161535,-99.808434,-0.424294,5.011463,-0.377131,44.818413,-326.987885,-65.83271
488,1540746095,-43.432568,-6.660863,-97.719193,-3.171212,7.702973,-4.462771,69.165016,-239.033615,-54.653889
489,1540762762,-42.587589,-8.288117,-97.050323,-6.538608,8.692755,-9.07148,56.3904,-99.716492,-36.616081
490,1540779429,-41.950363,-7.368454,-98.29435,-8.008556,9.525487,-13.163745,28.625328,89.345352,-16.790289
491,1540796096,-41.802711,-3.159404,-101.243256,-5.509347,9.964158,-14.119614,-6.756002,304.354919,38.088776
492,1540812763,-42.639381,4.241957,-105.120262,-1.171987,9.829788,-10.171636,-47.278637,483.819458,126.64283
493,1540829430,-44.13245,13.697387,-109.204559,2.867084,5.323431,-3.029212,-50.517582,577.196167,214.047333
494,1540846097,-45.21653,22.394762,-112.891777,7.386157,-4.273801,5.232084,4.185853,517.584106,217.579895
495,1540862764,-44.379025,27.906168,-114.726334,8.608215,-15.652164,12.172701,97.365776,303.531433,162.742325
496,1540879431,-41.103603,28.314564,-113.222076,3.432787,-21.215399,14.095783,154.198318,-37.263153,75.626266
497,1540896098,-37.571075,24.157419,-109.919632,-2.085377,-15.551439,12.345472,124.29969,-306.669159,-19.862377
498,1540912765,-35.315998,17.891649,-106.676956,-5.163831,-6.112513,9.220255,65.424255,-411.33075,-76.162971
499,1540929432,-34.88406,11.782997,-104.35675,-6.17239,0.595091,3.593568,-9.529802,-378.301575,-99.46801
500,1540946099,-35.931068,6.360523,-103.015793,-4.418862,4.086302,-1.206234,-75.050491,-312.336426,-122.529732
501,1540962766,-37.228367,1.843532,-102.632401,-1.037047,6.531964,-3.910008,-78.898575,-232.492859,-141.906616
502,1540979433,-38.004059,-1.385458,-102.573944,1.424194,7.292333,-5.824903,-45.931763,-156.825745,-114.380341
503,1540996100,-38.217476,-2.843096,-102.756134,0.888989,6.490377,-7.793354,-12.591261,-63.315159,-61.600307
504,1541012767,-38.254276,-2.417188,-103.406212,-0.920958,5.456277,-9.088657,-3.395846,42.923962,-13.916338
505,1541029434,-38.170628,-0.086224,-104.865929,-1.834632,5.386739,-9.050426,3.697773,162.762573,18.522449
506,1541046101,-38.080952,4.066225,-107.096672,-1.353208,5.626672,-7.748259,10.603137,277.254578,49.333481
507,1541062768,-38.290398,9.692746,-109.781364,0.019525,4.489512,-4.801501,7.291475,362.860779,83.658218
508,1541079435,-38.772121,15.819985,-112.426407,2.521496,0.774931,0.495272,6.678324,382.639435,108.532967
509,1541096102,-38.934437,21.067566,-114.429901,3.708675,-4.875079,5.464801,28.730968,315.377472,109.313652
510,1541112769,-38.166096,23.989861,-115.159569,2.170153,-10.776147,8.838873,63.202145,161.018463,78.278351
511,1541129436,-36.751553,23.477629,-114.931198,-1.943423,-13.49607,10.458178,79.621147,-33.277309,-8.025363
512,1541146103,-35.461594,20.223015,-113.689911,-3.36849,-7.088238,8.232508,49.888359,-199.709213,-58.326778
513,1541162770,-34.628757,15.903814,-113.016151,-4.149553,-2.370365,2.416115,37.690681,-235.43222,-116.313835
514,1541179437,-34.671535,11.847575,-112.645096,-2.780238,1.01049,-0.621387,-7.540859,-213.706039,-119.47113
515,1541196104,-35.401985,8.618762,-112.636826,-1.428114,2.975069,-3.233392,-43.457222,-160.139633,-109.67086
516,1541212771,-36.128513,6.396476,-112.965729,0.874777,3.144917,-4.194127,-40.505688,-98.023277,-92.678719
517,1541229438,-36.466522,5.228937,-113.321983,1.8343,2.3664,-4.958981,-17.596994,-45.153423,-57.539421
518,1541246105,-36.467045,5.121646,-113.638771,1.481337,2.355575,-4.651416,2.19261,4.782915,-18.040913
519,1541262772,-36.275036,5.973296,-114.023438,0.20373,2.552883,-3.737055,14.242263,53.472733,12.7563
520,1541279439,-36.148006,7.449232,-114.571205,-0.567712,2.273479,-2.443284,11.941927,89.431541,26.893206
521,1541296106,-35.903107,9.074208,-115.274498,-0.508737,0.872974,-0.400227,21.227707,102.101265,24.463245
522,1541312773,-35.380917,10.092376,-116.124268,-0.498114,-3.992203,1.784562,40.278229,77.628082,-4.367929
523,1541329440,-34.607243,9.950305,-116.532402,-0.282222,-6.542131,3.259266,51.125233,5.550956,-23.705858
524,1541346107,-33.958855,8.972064,-116.193962,-0.775886,-3.628645,3.160266,35.99778,-61.048763,-15.50623
525,1541362774,-33.426231,7.491296,-115.741821,-1.284166,-0.393446,1.380064,28.522207,-90.073921,-25.894213
526,1541379441,-33.002377,5.859432,-115.599739,-1.117793,1.601363,-0.467775,24.92383,-87.81086,-45.478947
527,1541396108,-32.654335,4.534608,-115.836594,-0.717852,2.191177,-1.397237,22.688597,-60.385109,-53.922607
528,1541412775,-32.350735,3.722205,-116.364662,-0.463082,0.731833,-1.645193,21.038595,-25.397928,-51.799774
529,1541429442,-32.047501,3.218777,-116.900536,0.09414,-0.946291,-0.871889,20.691998,-9.730548,-42.213554
530,1541446109,-31.67255,2.856698,-117.184967,0.108667,-1.71717,0.159293,23.951412,-10.721219,-24.90378
531,1541462776,-31.292269,2.422592,-117.215225,-0.414538,-1.136268,0.317828,23.449585,-22.522842,-14.100224
532,1541479443,-30.976215,1.914724,-117.183342,-0.861532,-0.085746,0.022511,19.449078,-28.32481,-13.05862
533,1541496110,-30.669947,1.439201,-117.254295,-1.108839,0.31873,-0.473957,19.073414,-23.574398,-17.206223
534,1541512777,-30.388857,1.061362,-117.482986,-0.908241,0.16867,-0.714067,17.756392,-13.815141,-22.254734
535,1541529444,-30.122019,0.832489,-117.777763,-0.477068,-0.201333,-0.545439,16.905777,-4.209753,-21.108953
536,1541546111,-29.889223,0.726383,-118.068398,-0.39468,-0.57101,-0.451014,14.813125,1.948752,-17.193554
537,1541562778,-29.706678,0.733684,-118.346115,-0.455222,-0.691915,-0.45406,11.773846,7.402804,-13.143763
538,1541579445,-29.58287,0.81777,-118.610664,-0.376706,-0.884193,-0.342803,8.253029,10.978286,-10.192392
539,1541596112,-29.498785,0.928758,-118.812576,-0.13652,-1.058852,-0.241437,5.83913,10.508751,-6.138255
540,1541612779,-29.478329,1.057531,-118.941322,0.101387,-1.059924,-0.261615,1.966524,9.270103,-1.794157
541,1541629446,-29.506695,1.215516,-118.99556,0.146726,-0.758657,-0.224515,-1.038032,8.594707,2.962794
542,1541646113,-29.559153,1.379269,-119.029381,-0.133097,-0.364412,-0.045942,-2.507881,8.28888,4.205485
543,1541662780,-29.619972,1.515667,-119.099457,-0.557603,-0.037576,-0.188376,-2.950084,7.926947,1.515472
544,1541679447,-29.691122,1.70632,-119.266457,-1.156792,-0.192513,-0.631509,-3.392135,13.62483,-1.908941
545,1541696114,-29.736359,1.906173,-119.548981,-0.933786,-0.638302,-0.634858,-1.57663,17.534983,-7.619135
546,1541712781,-29.774027,2.086783,-119.777695,-0.405182,-0.804774,-0.421333,-1.175278,14.931953,-5.356516
547,1541729448,-29.80254,2.231646,-119.866066,-0.041618,-0.837664,-0.261002,-0.904692,8.890292,0.902329
548,1541746115,-29.860054,2.42241,-119.889496,-0.384906,-0.321955,-0.413015,-2.791683,9.340615,5.660517
549,1541762782,-29.931744,2.732299,-119.952675,-0.699018,-0.201227,-0.415462,-3.529396,16.713846,7.1744
550,1541779449,-30.012541,3.103117,-120.056366,-0.703141,-0.301599,-0.314814,-3.927881,21.078503,6.932865
551,1541796116,-30.114483,3.489293,-120.154968,-0.582142,-0.43041,-0.146009,-5.172751,21.705404,7.709381
552,1541812783,-30.24641,3.842305,-120.2033,-0.409605,-0.423016,-0.009572,-7.127232,18.451885,9.369134
553,1541829450,-30.380104,4.116145,-120.165405,-0.467128,-0.365171,-0.188399,-7.578409,11.720339,11.480426
554,1541846117,-30.502798,4.359928,-120.083389,-0.755049,-0.474139,-0.425015,-7.122143,8.797567,12.88021
555,1541862784,-30.636673,4.57211,-120.042519,-0.906203,-0.67179,-0.568377,-7.617196,8.385098,9.829949
556,1541879451,-30.776287,4.691361,-119.987366,-0.636014,-0.572437,-0.248671,-8.031083,3.127088,7.759415
557,1541896118,-30.952826,4.733686,-119.919914,-0.426023,-0.444964,0.056743,-10.308207,-1.236863,6.046322
558,1541912785,-31.085447,4.737926,-119.83548,-0.517343,-0.42831,-0.047191,-7.753479,-3.738662,5.746448
559,1541929452,-31.20237,4.686958,-119.736359,-0.735896,-0.401318,-0.427062,-6.876706,-7.044341,4.787048
560,1541946119,-31.277061,4.59315,-119.638275,-0.921673,-0.118694,-0.496013,-4.322017,-9.223022,3.405089
561,1541962786,-31.281092,4.541512,-119.566383,-1.033941,-0.066971,-0.679631,0.06131,-6.25662,3.388106
562,1541979453,-31.232286,4.593278,-119.516922,-0.938747,-0.201019,-0.761256,3.349879,-0.263145,5.477949
563,1541996120,-31.158398,4.722868,-119.480568,-0.797824,-0.234011,-0.629239,4.92264,4.136894,7.237773
564,1542012787,-31.09306,4.881113,-119.473862,-0.592827,-0.315746,-0.271535,4.557891,6.527494,6.614693
565,1542029454,-31.046194,5.04186,-119.472389,-0.453213,-0.382248,-0.10842,3.478481,6.818557,6.426145
566,1542046121,-31.046045,5.160561,-119.486549,-0.45498,-0.360408,-0.041916,0.758911,5.138683,4.326005
567,1542062788,-31.070305,5.239904,-119.537781,-0.469407,-0.194073,-0.099889,-0.500024,4.25375,1.21944
568,1542079455,-31.092989,5.290786,-119.635872,-0.449211,-0.183951,-0.075145,-0.141485,4.230444,-2.050476
569,1542096122,-31.074766,5.284817,-119.716194,-0.485379,-0.426847,-0.332556,2.21895,0.757989,-2.899486
570,1542112789,-31.026466,5.260764,-119.752686,-0.577752,-0.612366,-0.599901,3.784244,-1.528015,-1.207191
571,1542129456,-30.955383,5.278194,-119.728119,-0.581054,-0.660674,-0.738586,4.818435,-1.277651,3.210789
572,1542146123,-30.886099,5.341583,-119.670929,-0.554203,-0.378754,-0.537445,4.532571,0.086206,6.312117
573,1542162790,-30.832598,5.41504,-119.626801,-0.632443,-0.129079,-0.165272,3.658333,1.008289,5.956893
574,1542179457,-30.809198,5.470256,-119.616898,-0.644758,0.029456,0.03568,2.04892,1.113391,3.648484
575,1542196124,-30.816578,5.506886,-119.634834,-0.641665,0.025498,-0.044117,0.36801,1.002385,1.655906
576,1542212791,-30.819101,5.522494,-119.648674,-0.58567,-0.059842,-0.098351,0.640772,-0.211817,1.226432
577,1542229458,-30.813242,5.516916,-119.647797,-0.624152,-0.22521,-0.272082,1.064688,-1.757492,1.334377
578,1542246125,-30.773695,5.504855,-119.62104,-0.65085,-0.40233,-0.490351,2.94233,-2.888614,2.474463
579,1542262792,-30.727751,5.49791,-119.577942,-0.715063,-0.535768,-0.570611,3.238835,-3.125992,3.480311
580,1542279459,-30.680513,5.527072,-119.537331,-0.741627,-0.567812,-0.563319,3.334844,-1.188788,4.473291
581,1542296126,-30.633051,5.579335,-119.507408,-0.688196,-0.483148,-0.354978,3.415255,0.327221,4.64642
582,1542312793,-30.593573,5.618488,-119.507904,-0.68282,-0.32622,-0.259825,3.116291,0.574346,2.693476
583,1542329460,-30.568943,5.635462,-119.569199,-0.574026,-0.152539,-0.205973,2.589348,1.272215,-1.098913
584,1542346127,-30.532824,5.633154,-119.659782,-0.421803,-0.250936,-0.234546,3.454353,1.160864,-3.188563
585,1542362794,-30.509087,5.611672,-119.731125,-0.343673,-0.341328,-0.287583,2.599786,-0.417705,-2.781719
586,1542379461,-30.483957,5.592531,-119.75322,-0.41365,-0.398966,-0.259134,2.39628,-1.793965,-0.171682
587,1542396128,-30.462606,5.567361,-119.730186,-0.631962,-0.362797,-0.341758,1.907884,-3.475182,1.972466
588,1542412795,-30.442598,5.560278,-119.704666,-0.78535,-0.253251,-0.388996,1.819814,-2.619001,2.661716
589,1542429462,-30.434774,5.570003,-119.719696,-0.792526,-0.164861,-0.290738,1.331867,-0.527468,1.097946
590,1542446129,-30.436396,5.589873,-119.772682,-0.638766,-0.112863,-0.243277,0.992575,1.140553,-0.536509
591,1542462796,-30.436861,5.616031,-119.829224,-0.48796,-0.189987,-0.15639,1.088687,1.569348,-0.520885
592,1542479463,-30.441822,5.621817,-119.854973,-0.547191,-0.34455,-0.305722,0.642437,-0.420176,0.451379
593,1542496130,-30.451893,5.64157,-119.849525,-0.635171,-0.432162,-0.497694,0.155975,-0.644941,2.488971
594,1542512797,-30.464327,5.698717,-119.847771,-0.746184,-0.39726,-0.430305,0.039155,1.39732,3.446323
595,1542529464,-30.485573,5.740494,-119.851997,-0.61043,-0.469715,-0.326172,-0.448043,0.777493,2.685895
596,1542546131,-30.52499,5.748803,-119.856392,-0.544127,-0.40512,-0.17234,-1.533394,-0.950782,1.665357
597,1542562798,-30.566515,5.718282,-119.844414,-0.463933,-0.35133,-0.197929,-1.754521,-3.458649,1.333378
598,1542579465,-30.610678,5.659185,-119.81414,-0.548286,-0.275739,-0.321305,-2.01718,-5.495641,1.407527
599,1542596132,-30.661734,5.601666,-119.788078,-0.613869,-0.225532,-0.321987,-2.396722,-5.290662,1.243375
600,1542612799,-30.711464,5.541345,-119.76722,-0.611585,-0.272311,-0.303721,-2.279364,-5.281672,0.893749
601,1542629466,-30.776501,5.485193,-119.759857,-0.681781,-0.194682,-0.266457,-3.113173,-4.658579,0.332472
602,1542646133,-30.83744,5.423141,-119.760986,-0.702692,-0.176332,-0.277736,-2.81052,-4.707256,-0.278666
603,1542662800,-30.893814,5.352808,-119.770905,-0.740605,-0.191438,-0.333439,-2.480052,-4.868565,-0.976804
604,1542679467,-30.923483,5.275999,-119.777054,-0.780047,-0.242059,-0.44494,-0.891437,-5.322075,-0.974538
605,1542696134,-30.946699,5.210289,-119.783241,-0.789329,-0.162968,-0.435597,-0.496515,-4.753475,-0.623452
606,1542712801,-30.949671,5.156572,-119.7976,-0.858921,-0.09771,-0.330358,0.76986,-3.888931,-0.663074
607,1542729468,-30.931599,5.082943,-119.82589,-0.879474,-0.066702,-0.313003,2.115039,-4.491393,-1.978069
608,1542746135,-30.882259,4.980084,-119.870247,-0.933036,0.050171,-0.406057,4.083158,-5.509459,-3.687448
609,1542762802,-30.804071,4.874259,-119.955269,-0.933841,0.047336,-0.472371,6.028982,-4.425466,-5.848597
610,1542779469,-30.671228,4.765342,-120.044891,-0.838141,-0.02386,-0.520442,9.332434,-4.460774,-6.160843
611,1542796136,-30.506863,4.670325,-120.139915,-0.772913,-0.133529,-0.411514,11.249125,-3.598715,-5.997513
612,1542812803,-30.328188,4.568678,-120.212708,-0.680257,-0.247964,-0.277878,11.999307,-4.63713,-5.034832
613,1542829470,-30.129156,4.439861,-120.226593,-0.58962,-0.349037,-0.275674,12.942204,-7.841398,-2.79007
614,1542846137,-29.931084,4.296243,-120.204498,-0.619728,-0.225399,-0.30995,12.725866,-9.699575,-1.342708
615,1542862804,-29.737818,4.163196,-120.184242,-0.617708,-0.297327,-0.409112,12.457176,-9.104656,-1.086043
616,1542879471,-29.557941,4.052918,-120.161171,-0.488204,-0.367551,-0.34319,11.652307,-8.008237,-0.230028
617,1542896138,-29.40575,3.96811,-120.121338,-0.460895,-0.418248,-0.280018,9.929358,-7.175992,1.419649
618,1542912805,-29.298489,3.899317,-120.076622,-0.484817,-0.349413,-0.216302,7.222059,-6.48159,2.163678
619,1542929472,-29.235815,3.831413,-120.057487,-0.601899,-0.21506,-0.161768,4.658804,-5.68597,0.866318
620,1542946139,-29.183048,3.744236,-120.063553,-0.62537,-0.246909,-0.218542,4.172085,-5.962547,-1.000279
621,1542962806,-29.13447,3.65387,-120.099548,-0.620219,-0.21808,-0.367517,4.042984,-5.25962,-2.648955
622,1542979473,-29.083855,3.593029,-120.160667,-0.616328,-0.295649,-0.425185,4.264227,-2.986992,-3.085703
623,1542996140,-29.036282,3.544192,-120.213745,-0.541418,-0.367699,-0.326587,4.05387,-2.594989,-2.3096
624,1543012807,-28.992245,3.508039,-120.238518,-0.590509,-0.412823,-0.382318,3.738872,-2.755081,-0.451321
625,1543029474,-28.973267,3.485044,-120.253311,-0.598845,-0.287012,-0.359701,2.202174,-2.356458,0.462521
626,1543046141,-28.964834,3.46043,-120.271065,-0.644544,-0.197071,-0.344163,1.58615,-2.359083,0.270733
627,1543062808,-28.960201,3.439082,-120.290955,-0.651037,-0.198217,-0.240528,1.370382,-2.128774,0.262428
628,1543079475,-28.965084,3.423309,-120.306435,-0.72477,-0.225031,-0.313456,0.789467,-1.968477,0.667627
629,1543096142,-28.9741,3.435657,-120.31675,-0.866775,-0.21988,-0.446496,0.528678,-0.645094,1.764977
630,1543112809,-28.985691,3.470575,-120.339371,-0.93759,-0.17375,-0.477808,0.426202,0.893518,1.787094
631,1543129476,-28.98313,3.532912,-120.365105,-0.727321,-0.18663,-0.425933,1.294882,2.416757,2.440679
632,1543146143,-28.978113,3.598547,-120.364166,-0.506584,-0.297055,-0.307577,1.352037,1.804511,3.963098
633,1543162810,-28.977846,3.63642,-120.32518,-0.509767,-0.194755,-0.160704,0.921423,-0.7493,5.133125
634,1543179477,-28.978117,3.640918,-120.292908,-0.725868,-0.094675,-0.226934,0.911972,-2.290467,3.772015
635,1543196144,-28.965908,3.636602,-120.302528,-0.80939,-0.163072,-0.346375,1.833556,-1.562925,1.381543
636,1543212811,-28.963657,3.645573,-120.356529,-0.717578,-0.247949,-0.39826,1.408871,0.425472,-0.563454
637,1543229478,-28.972061,3.67257,-120.420815,-0.632175,-0.399628,-0.371591,0.818601,1.660298,-0.550711
638,1543246145,-29.003275,3.704616,-120.458557,-0.564737,-0.379097,-0.330706,-0.645043,1.143511,1.020263
639,1543262812,-29.04521,3.741279,-120.45652,-0.652012,-0.201313,-0.356618,-1.441905,0.237231,3.225285
640,1543279479,-29.091553,3.786431,-120.451164,-0.769857,-0.05792,-0.309801,-1.714604,0.577829,3.662776
641,1543296146,-29.119925,3.843277,-120.465469,-0.740274,0.027185,-0.319152,-0.560188,1.781216,2.930061
642,1543312813,-29.142477,3.892751,-120.510155,-0.706455,-0.001334,-0.315783,-0.071523,2.240746,1.218287
643,1543329480,-29.154694,3.923671,-120.56057,-0.632321,-0.09844,-0.220833,0.569338,1.459661,0.321254
644,1543346147,-29.167206,3.927463,-120.600571,-0.69232,-0.191958,-0.267962,0.519342,-0.283238,0.115481
645,1543362814,-29.173586,3.919079,-120.627892,-0.769514,-0.244528,-0.372232,0.850335,-1.323754,0.502771
646,1543379481,-29.171598,3.931886,-120.630363,-0.777836,-0.294978,-0.489674,1.229198,-0.858179,2.238428
647,1543396148,-29.172518,3.977678,-120.631592,-0.751799,-0.234163,-0.448572,1.068658,0.789313,3.376375
648,1543412815,-29.168549,4.021568,-120.636238,-0.66584,-0.204943,-0.285353,1.377368,0.800967,3.118545
649,1543429482,-29.167637,4.03934,-120.640823,-0.6075,-0.161586,-0.202994,1.211679,-0.614103,2.46505
650,1543446149,-29.164328,4.029738,-120.635292,-0.567854,-0.143382,-0.312777,1.314309,-2.334598,2.175882
651,1543462816,-29.163897,4.019622,-120.638954,-0.64834,-0.098509,-0.316442,1.232067,-2.246848,2.037035
652,1543479483,-29.153942,4.021247,-120.64006,-0.732261,-0.143743,-0.325926,1.720181,-1.466122,1.953064
653,1543496150,-29.158646,4.030907,-120.678459,-0.797215,-0.151618,-0.379995,1.138632,-0.367197,1.201703
654,1543512817,-29.162928,4.040428,-120.723885,-0.73055,-0.194711,-0.316518,1.155498,-0.048549,0.547798
655,1543529484,-29.165188,4.041198,-120.736641,-0.663867,-0.207127,-0.295883,0.997352,-0.997499,0.929555
656,1543546151,-29.156332,4.032929,-120.737106,-0.740786,-0.140749,-0.371106,1.655739,-1.953301,1.597329
657,1543562818,-29.147009,4.032611,-120.765953,-0.791097,-0.076739,-0.393294,1.957521,-1.18063,1.442296
658,1543579485,-29.136147,4.051359,-120.811775,-0.743692,-0.059783,-0.329145,2.088159,0.448638,0.807895
659,1543596152,-29.123056,4.073572,-120.85009,-0.716417,-0.129066,-0.290507,2.044207,0.884823,0.20186
660,1543612819,-29.108891,4.07367,-120.888954,-0.632115,-0.165192,-0.260124,2.240196,-0.64083,0.424934
661,1543629486,-29.090496,4.060087,-120.899551,-0.730834,-0.110425,-0.297642,2.183643,-1.609989,0.16129
662,1543646153,-29.064251,4.03699,-120.946068,-0.677877,-0.194165,-0.362202,3.024149,-1.707919,-0.483389
663,1543662820,-29.039967,4.027582,-120.99295,-0.661554,-0.273672,-0.411643,2.985051,-1.176186,0.370264
664,1543679487,-29.040813,4.046543,-121.017059,-0.644905,-0.286291,-0.358066,1.301234,-0.126565,1.858067
665,1543696154,-29.060108,4.085871,-121.008194,-0.609199,-0.171176,-0.299322,-0.035422,0.268069,3.511482
666,1543712821,-29.092897,4.116755,-121.021324,-0.652174,0.015228,-0.20785,-0.603077,0.095849,3.013802
667,1543729488,-29.121233,4.121766,-121.091156,-0.710539,0.058946,-0.232138,0.095183,-0.254193,0.755978
668,1543746155,-29.120262,4.120575,-121.097725,-0.726057,-0.021048,-0.320144,0.845917,-0.172886,-1.368858
669,1543762822,-29.116283,4.112341,-121.17321,-0.697408,-0.166716,-0.361497,1.82655,0.011122,-1.751998
670,1543779489,-29.114874,4.104767,-121.247223,-0.714881,-0.275101,-0.3998,1.804677,-0.456956,-0.598748
671,1543796156,-29.119364,4.111704,-121.279022,-0.707829,-0.283627,-0.363014,1.123661,-0.498987,1.02892
672,1543812823,-29.121502,4.114771,-121.285088,-0.742461,-0.221551,-0.367489,1.158046,-1.407085,2.18226
673,1543829490,-29.120443,4.125102,-121.266075,-0.75941,-0.081458,-0.377515,1.049705,-1.098439,2.203262
674,1543846157,-29.114347,4.133463,-121.281975,-0.758328,0.030355,-0.31598,1.579286,-0.420996,0.864525
675,1543862824,-29.104406,4.131069,-121.337891,-0.725598,0.060735,-0.268187,2.105742,-0.21457,-0.636194
676,1543879491,-29.080221,4.110349,-121.392776,-0.687865,0.013345,-0.240003,2.936259,-1.095545,-1.355129
677,1543896158,-29.040451,4.060335,-121.425522,-0.675042,0.017227,-0.263889,3.683907,-3.047847,-1.611961
678,1543912825,-28.992384,3.9946,-121.47467,-0.809644,0.066223,-0.256456,4.287098,-3.569501,-2.556109
679,1543929492,-28.945665,3.903918,-121.56749,-0.834721,-0.009759,-0.351265,4.658458,-4.255039,-3.99507
680,1543946159,-28.875738,3.808913,-121.659164,-0.809634,-0.04195,-0.392273,5.88213,-4.010386,-5.233802
681,1543962826,-28.792997,3.721215,-121.738586,-0.761776,-0.124261,-0.328043,6.379876,-3.467423,-5.65517
682,1543979493,-28.728851,3.611282,-121.902168,-0.659925,-0.220192,-0.291037,6.412147,-4.383845,-5.486766
683,1543996160,-28.655424,3.494312,-121.961647,-0.57293,-0.264195,-0.273195,5.934791,-6.096951,-4.219028
684,1544012827,-28.597189,3.384398,-121.973328,-0.593223,-0.21014,-0.346652,4.645062,-6.511338,-2.888972
685,1544029494,-28.562111,3.289885,-122.024811,-0.681885,-0.082364,-0.35744,3.619876,-5.215977,-2.995701
686,1544046161,-28.535942,3.216232,-122.111763,-0.731817,-0.037815,-0.319224,3.254126,-3.211077,-3.989434
687,1544062828,-28.515022,3.155767,-122.223091,-0.785431,-0.125244,-0.385164,3.017298,-1.811894,-4.908751
688,1544079495,-28.497091,3.095594,-122.361473,-0.692142,-0.100273,-0.336215,3.104996,-1.51348,-5.156451
689,1544096162,-28.466539,3.042309,-122.403893,-0.7574,-0.111716,-0.291273,2.897341,-2.227678,-3.929923
690,1544112829,-28.395157,2.960577,-122.420845,-0.689484,-0.202483,-0.374108,5.172761,-4.076198,-4.238928
691,1544129496,-28.344103,2.866317,-122.506958,-0.775725,-0.139188,-0.399745,5.000426,-5.024521,-2.857494
692,1544146163,-28.28616,2.79557,-122.556297,-0.827292,-0.109154,-0.494858,4.991909,-3.98339,-2.264854
693,1544162830,-28.238665,2.736149,-122.693474,-0.785145,-0.09143,-0.440367,5.401802,-2.75211,-2.008907
694,1544179497,-28.162268,2.702958,-122.71431,-0.724516,-0.081198,-0.305676,5.661566,-1.877142,-1.935629
695,1544196164,-28.104656,2.655833,-122.791519,-0.605555,-0.05072,-0.181426,5.231516,-2.372056,-2.022712
696,1544212831,-28.067263,2.567075,-122.947617,-0.551684,-0.035686,-0.139357,5.089904,-4.27001,-2.570055
697,1544229498,-28.013189,2.464501,-122.978676,-0.630601,-0.07012,-0.251863,4.599216,-5.932952,-2.834187
698,1544246165,-27.970686,2.366409,-123.042389,-0.658525,-0.107103,-0.401631,4.325352,-5.570457,-2.4768
699,1544262832,-27.920294,2.299197,-123.062416,-0.78314,-0.123625,-0.471388,4.129759,-3.843365,-2.552625
700,1544279499,-27.889204,2.250016,-123.217583,-0.661733,-0.21297,-0.465853,4.586614,-1.977813,-1.994525
701,1544296166,-27.853405,2.248482,-123.296265,-0.625639,-0.178958,-0.392006,3.922387,0.071312,-0.803342
702,1544312833,-27.83947,2.283077,-123.384735,-0.502416,-0.123329,-0.260392,2.578283,2.408778,-0.664163
703,1544329500,-27.855589,2.336913,-123.460533,-0.465299,-0.111098,-0.189126,0.479374,3.639392,-0.890208
704,1544346167,-27.897511,2.395288,-123.539009,-0.50491,-0.062741,-0.210051,-1.032461,3.976352,-0.898417
705,1544362834,-27.959681,2.445954,-123.622917,-0.563675,-0.107123,-0.307149,-2.091341,3.38192,-0.568512
706,1544379501,-28.031054,2.497563,-123.690903,-0.632116,0.007132,-0.326558,-2.81928,3.296258,-0.46747
707,1544396168,-28.121651,2.565741,-123.792397,-0.742996,0.137721,-0.220314,-3.847362,5.070362,-1.628533
708,1544412835,-28.21911,2.594401,-123.980705,-0.649822,0.159114,-0.293179,-3.275621,3.59717,-2.832727
709,1544429502,-28.296799,2.610772,-124.092995,-0.53787,0.316815,-0.316647,-3.117822,2.872766,-4.194067
710,1544446169,-28.384281,2.804342,-124.200668,-0.966917,0.871272,-0.457248,-3.635277,11.892873,1.593514
711,1544462836,-28.390984,2.856845,-124.582039,-1.031264,-0.148931,0.225676,1.978014,12.444327,-17.31315
712,1544479503,-28.457031,2.803154,-124.82769,-0.684959,-0.111277,-0.472766,-1.88274,2.787259,-12.665027
713,1544496170,-28.548954,2.828367,-125.120667,-0.812892,-0.243856,-0.429719,-3.191742,7.991405,-12.119925
714,1544512837,-28.592819,2.825864,-125.35997,-0.891443,-0.60627,-0.496459,-0.63248,5.450623,-11.131707
715,1544529504,-28.623943,2.844062,-125.529114,-0.743029,-0.675439,-0.662059,0.004207,4.365859,-6.39466
716,1544546171,-28.667179,2.959427,-125.649597,-0.920082,-0.221996,-0.707922,-0.812192,7.97009,-0.730641
717,1544562838,-28.651009,3.163701,-125.864243,-1.183285,0.30682,-0.928618,3.088901,15.315465,-3.008035
718,1544579505,-28.574688,3.505441,-126.274338,-1.141469,0.570145,-0.839962,7.44294,28.157137,-9.328879
719,1544596172,-28.461,3.938582,-126.847488,-0.938284,0.476993,-0.419291,10.481222,37.614422,-15.310648
720,1544612839,-28.351036,4.28419,-127.455688,-0.227529,-0.027136,-0.007416,10.630439,33.96199,-19.719549
721,1544629506,-28.226332,4.437143,-127.926041,0.309288,-0.284977,0.492453,11.028523,19.83577,-18.005192
722,1544646173,-28.078852,4.345882,-128.224594,0.009507,-0.072552,0.544001,11.609441,2.01747,-15.893751
723,1544662840,-27.924711,4.088924,-128.43959,-0.578045,0.093494,0.06392,11.582908,-9.142801,-16.176481
724,1544679507,-27.759563,3.807368,-128.670029,-0.953437,0.197927,-0.423426,12.255746,-10.060637,-17.661194
725,1544696174,-27.574097,3.627908,-128.971191,-1.206558,0.091114,-0.625318,13.705503,-2.719856,-18.5387
726,1544712841,-27.435011,3.579695,-129.343674,-1.193028,-0.191977,-0.512395,11.16669,6.185523,-18.669603
727,1544729508,-27.406086,3.61693,-129.751465,-1.111277,-0.49399,-0.54861,4.693925,11.683438,-18.172955
728,1544746175,-27.528658,3.759735,-130.146774,-0.940196,-0.325727,-0.545801,-4.406097,16.977341,-14.551756
729,1544762842,-27.757011,4.010141,-130.524551,-0.573877,0.282248,-0.643334,-10.748769,22.258717,-10.551858
730,1544779509,-27.944042,4.412372,-131.040298,-0.401402,0.846664,-0.39058,-7.541826,34.205078,-13.491058
731,1544796176,-28.01461,4.755523,-131.727173,-1.049235,0.233062,0.482635,0.452829,35.900234,-24.097151
732,1544812843,-28.225239,4.840883,-132.35701,0.297433,0.436639,0.198472,-8.088168,20.709694,-28.256134
733,1544829510,-28.436926,4.895486,-133.12912,-0.362234,0.31751,0.242273,-7.398368,23.232677,-36.552692
734,1544846177,-28.737988,4.808057,-134.029114,-0.496993,0.172293,-0.130222,-12.13425,19.582987,-47.23526
735,1544862844,-29.096569,4.765772,-135.142899,-0.978112,0.214764,-0.659443,-14.58527,28.422167,-56.990891
736,1544879511,-29.464937,4.783046,-136.297836,-0.719147,-0.330997,-0.489796,-14.990061,33.117981,-57.180222
737,1544896178,-29.842833,4.761307,-137.254272,-0.048147,-0.143172,-0.760696,-16.56908,25.599304,-47.785538
738,1544912845,-30.123262,4.868821,-138.177277,-0.622171,0.121607,0.041896,-10.865925,31.604874,-42.027546
739,1544929512,-30.412298,4.858519,-139.047714,-0.935901,-0.035071,-0.262669,-11.614235,24.132929,-42.69997
740,1544946179,-30.761045,4.806691,-139.888519,-0.968754,-0.316256,-0.818361,-15.380406,21.336275,-42.285458
741,1544962846,-31.145103,4.794848,-140.769485,-1.415457,-0.617491,-0.567936,-17.332846,24.913326,-42.947731
742,1544979513,-31.61974,4.838269,-141.576843,-0.889196,-0.485837,-0.904319,-23.130068,25.786596,-37.231922
743,1544996180,-32.143452,4.910155,-142.331818,-0.571499,-0.581252,-0.6422,-26.304497,25.91872,-33.411972
744,1545012847,-32.849056,4.920921,-143.05986,-0.383396,-0.78011,-0.157196,-37.338852,22.332819,-33.719147
745,1545029514,-33.838715,4.777149,-143.729416,-0.208066,-1.116108,0.030474,-54.742664,13.184873,-35.541988
746,1545046181,-35.114071,4.477486,-144.344467,-0.098761,-0.804782,0.246152,-72.314926,4.362118,-37.865513
747,1545062848,-36.619663,3.841009,-144.998062,-0.296575,-0.576774,0.292785,-86.267044,-9.702055,-51.450745
748,1545079515,-38.397411,2.780306,-145.691864,-0.580313,-0.515944,0.681921,-103.024872,-26.893528,-69.108589
749,1545096182,-40.484356,1.177972,-146.380234,-1.510977,-0.519666,0.803575,-122.526711,-49.788151,-90.352585
750,1545112849,-42.542118,-1.007418,-147.287689,-2.09292,-0.472487,0.623064,-122.064323,-63.914856,-125.066132
751,1545129516,-44.570789,-3.527231,-148.498642,-1.010726,-0.885321,-0.700965,-123.206398,-61.407665,-154.15329
752,1545146183,-46.938034,-6.034957,-149.776489,-0.846309,-0.943776,-0.786931,-146.985565,-52.170689,-158.463211
753,1545162850,-49.533794,-8.291762,-151.806946,-0.8513,-1.222373,-1.676505,-169.458862,-1.994273,-178.891861
754,1545179517,-52.594242,-10.016736,-154.422897,0.557848,-1.336814,-2.041508,-207.10585,53.461281,-175.277557
755,1545196184,-55.863876,-11.055866,-157.524033,1.248924,-1.252852,-1.105409,-228.747696,109.879631,-154.951385
756,1545212851,-58.440083,-11.664976,-160.489746,3.087955,-2.37197,-0.545931,-188.257248,124.563622,-122.81694
757,1545229518,-59.646545,-12.398883,-162.628586,2.35763,-4.166767,-1.018954,-97.897194,82.773697,-99.898407
758,1545246185,-59.889484,-13.078656,-163.873718,0.659204,-3.704722,-0.540328,-29.901606,40.224152,-69.573669
759,1545262852,-60.206833,-14.39856,-164.6091,-0.384188,-1.477525,0.372806,-28.411549,-4.593507,-87.683678
760,1545279519,-60.591755,-16.526279,-165.337753,0.296177,-0.473344,0.588114,-33.627602,-28.609758,-129.49028
761,1545296186,-60.70916,-19.064806,-166.045319,0.425075,0.438293,0.056109,-18.870659,-41.594734,-150.275818
762,1545312853,-60.820286,-21.811739,-166.93663,0.411706,1.340207,-0.280124,-24.153177,-38.927349,-166.025497
763,1545329520,-61.048176,-24.600439,-168.0728,0.678029,1.569743,-0.7566,-39.302406,-28.662275,-174.453491
764,1545346187,-61.274208,-27.250582,-169.295319,0.888353,1.066241,-1.465357,-44.36021,-21.032293,-168.916138
765,1545362854,-61.326057,-29.652391,-170.701263,0.498546,0.934268,-1.806633,-42.009968,-6.252086,-159.871719
766,1545379521,-61.381599,-31.860094,-172.413971,0.255286,0.508894,-1.678764,-54.578701,11.909764,-156.466766
767,1545396188,-61.497616,-33.92585,-174.347366,0.162819,0.258501,-1.273534,-68.642998,24.215572,-153.337875
768,1545412855,-61.55307,-35.966076,-176.564621,0.104553,0.34778,-0.709033,-78.207306,35.41399,-157.51973
769,1545429522,-61.520847,-38.105843,-179.145172,0.097444,0.546314,-0.161204,-90.000443,45.391243,-169.710526
770,1545446189,-61.357708,-40.498833,177.943512,0.449182,0.32283,0.051834,-99.530716,48.005703,-188.680573
771,1545462856,-60.886047,-43.116661,175.021164,0.783719,-0.467305,-0.36857,-87.267708,36.521461,-198.633469
772,1545479523,-59.949173,-45.749981,172.274857,-0.323268,-0.420944,-1.071255,-57.837925,22.266432,-193.502274
773,1545496190,-58.698483,-48.290749,169.343124,-0.914898,-0.088687,-1.423876,-52.329308,23.313168,-190.3069
774,1545512857,-57.425274,-50.526066,166.203491,-1.362611,0.111781,-1.802293,-65.306458,31.019512,-176.656998
775,1545529524,-56.097401,-52.324917,162.725632,-1.524363,0.541246,-1.631762,-82.083771,47.613674,-159.571152
776,1545546191,-54.400776,-53.678028,158.579559,-1.725245,1.005873,-1.475848,-95.475502,74.66378,-149.986526
777,1545562858,-52.25679,-54.59235,153.674927,-1.876083,1.057743,-1.468963,-108.427017,103.441261,-144.875351
778,1545579525,-49.825924,-55.099983,148.278687,-1.32336,1.013895,-1.43801,-117.448189,123.699112,-138.767365
779,1545596192,-46.857666,-55.293739,142.350418,-1.083664,0.953441,-1.153535,-112.57267,141.806305,-141.467911
780,1545612859,-43.287186,-55.20018,135.918701,-1.022388,0.809485,-1.064347,-101.476433,157.528793,-149.193497
781,1545629526,-39.238312,-54.807957,129.080063,-0.903291,0.70405,-0.801775,-91.88839,170.672211,-159.161774
782,1545646193,-35.152775,-54.170231,122.135643,-0.845408,0.49729,-0.42705,-92.768166,174.547363,-167.428421
783,1545662860,-31.092155,-53.422295,115.149384,-0.754046,0.315282,0.18127,-93.377136,170.612778,-180.584412
784,1545679527,-26.999611,-52.753597,108.124931,-1.031423,0.21121,0.651931,-90.241394,155.709183,-199.53212
785,1545696194,-22.64386,-52.183651,100.895149,-1.243703,0.333025,0.489563,-81.498093,139.706787,-223.168716
786,1545712861,-18.018755,-51.631187,93.62088,-1.5622,0.244597,-0.085089,-64.854111,122.373344,-238.611542
787,1545729528,-13.289904,-50.964485,86.676682,-1.617172,0.442283,-0.769898,-40.282276,106.557106,-237.671432
788,1545746195,-8.801654,-49.835999,80.330635,-1.679499,1.020248,-0.835496,-22.926079,110.694489,-222.823441
789,1545762862,-4.962257,-48.13866,74.523033,-0.757111,1.435853,-0.311769,-31.400118,126.247566,-212.372131
790,1545779529,-1.566553,-45.911655,68.794815,0.02251,0.90425,0.920758,-46.587875,144.478897,-223.838593
791,1545796196,1.553248,-43.724152,63.20295,-0.1074,-0.100588,1.642785,-48.187061,129.039322,-235.522797
792,1545812863,4.774519,-41.707409,57.932087,-0.668207,-0.284875,1.14778,-20.158678,105.790268,-236.234039
793,1545829530,7.904799,-39.4977,53.186703,-0.900576,1.238639,0.49242,3.614591,105.725632,-227.034821
794,1545846197,10.345111,-36.618908,48.934269,-0.58793,1.980927,0.430376,-9.791067,136.527512,-223.278839
795,1545862864,11.771539,-33.483627,45.303261,-0.576715,1.549191,2.081749,-38.466309,148.301361,-208.642914
796,1545879531,12.587102,-30.699007,42.200386,-0.822686,0.75674,3.92615,-48.922611,127.958267,-186.939743
797,1545896198,13.205196,-28.388134,39.619747,-0.922414,0.508746,3.932909,-38.233173,103.019318,-159.758087
798,1545912865,13.654915,-26.247236,37.761349,-0.973766,0.662422,2.9023,-23.181202,99.867287,-123.686134
799,1545929532,13.719832,-24.374561,36.090633,-0.801341,0.879141,1.333729,-37.977779,85.657501,-112.108704
800,1545946199,13.29028,-22.419348,34.394894,-0.018656,1.116859,0.489784,-65.218636,90.173943,-115.667015
801,1545962866,12.66704,-20.75215,32.638386,-0.578355,0.728219,0.614444,-75.23365,73.358871,-115.455704
802,1545979533,12.233671,-19.386909,31.07151,-1.339511,0.404341,0.233606,-57.349792,58.817894,-101.386368
803,1545996200,11.761848,-18.738674,29.869251,-1.501137,0.402271,-0.436646,-50.961937,21.713852,-72.255516
804,1546012867,8.846741,-19.304369,29.950476,-3.639199,-1.011873,-2.092713,-172.401306,-34.789463,13.133693
805,1546029534,1.416195,-17.298389,30.005783,0.232489,4.425269,-2.166721,-443.838501,117.834602,-5.082226
806,1546046201,-0.876331,-16.389442,29.11665,1.537074,-1.034131,0.675199,-152.166275,51.783112,-48.852947
807,1546062868,-0.823861,-14.278237,28.16535,-0.63761,-0.721037,-0.692611,-11.11887,124.945061,-50.777378
808,1546079535,-1.028727,-12.828562,27.230499,-1.418961,0.223654,2.790937,-24.631104,85.311081,-50.742863
809,1546096202,-0.804006,-12.563114,26.767651,-1.130733,-0.010644,1.485858,8.1723,13.805215,-24.44035
810,1546112869,-0.430156,-12.609496,26.610409,-0.107404,-0.147073,1.359922,21.172167,-5.237166,-6.826526
811,1546129536,0.548656,-12.677101,26.7024,0.959628,0.005095,1.011745,60.742615,-6.57789,7.799434
812,1546146203,1.638233,-12.735241,26.908291,1.322894,0.337923,1.046786,68.90625,-5.73125,14.502102
813,1546162870,2.2025,-13.1951,27.059448,1.521823,0.515095,1.995596,36.717308,-29.700006,12.108382
814,1546179537,2.487416,-14.147222,26.909794,1.790932,0.262177,2.887439,15.823498,-59.812077,-4.07316
815,1546196204,3.060107,-15.26672,26.264521,1.28898,0.139836,2.763224,25.418924,-71.235878,-31.902985
816,1546212871,4.166344,-16.531237,25.454782,-0.249216,0.818981,2.066677,53.991154,-80.956131,-39.640347
817,1546229538,5.392842,-18.192162,24.674562,-1.237331,2.231622,0.881869,60.584297,-105.293594,-34.002354
818,1546246205,6.392933,-19.701582,23.853666,-1.407215,3.728916,-1.369314,45.01038,-97.10894,-34.78149
819,1546262872,6.896629,-20.576477,23.097317,-2.489102,4.406667,-2.99695,15.611961,-59.294418,-33.936584
820,1546279539,6.452938,-21.347153,22.217646,-4.286675,4.909007,-3.941355,-44.48262,-53.89167,-41.196709
821,1546296206,4.871121,-22.534655,21.505754,-6.588072,5.008048,-4.296177,-109.832375,-77.112549,-29.903627
822,1546312873,2.622078,-23.907032,21.329079,-7.598006,5.949753,-4.536052,-138.056152,-85.229965,-1.686087
823,1546329540,-0.024366,-24.89883,22.225218,-8.651306,5.55518,-5.012348,-135.489258,-60.962704,53.135845
824,1546346207,-3.0244,-25.631977,24.434099,-8.3192,4.604724,-4.791388,-122.338242,-49.920231,121.672913
825,1546362874,-6.313194,-25.768015,28.404512,-8.280951,2.713917,-4.708673,-92.917091,-28.548689,216.477692
826,1546379541,-9.480448,-25.495419,34.955517,-9.408919,-0.429277,-3.517512,-18.887255,-35.605682,356.599426
827,1546396208,-11.725883,-25.783037,43.82021,-9.118434,-2.955746,-1.42665,96.468384,-108.357635,471.670349
828,1546412875,-13.242718,-26.79394,54.074451,-5.335509,-2.887261,-2.000129,182.411407,-181.502441,529.275513
829,1546429542,-14.583752,-27.182741,64.866066,-2.536679,-4.552251,-2.877665,214.215698,-164.37532,558.420227
830,1546446209,-16.315157,-27.321461,76.247208,0.216433,-10.561979,-2.45291,209.666809,-172.558182,586.959534
831,1546462876,-18.714544,-27.796499,88.408707,5.379575,-12.052194,-1.955342,194.659149,-224.389801,612.333252
832,1546479543,-22.71384,-28.149591,101.022591,7.692765,-7.778818,-4.307893,116.457092,-258.571106,621.448242
833,1546496210,-28.241329,-26.677221,112.807777,9.058944,-7.272926,-6.219827,-4.426292,-192.889359,608.021118
834,1546512877,-34.700031,-24.007658,124.416954,11.447968,-8.997852,-5.862906,-87.478348,-194.847763,623.502747
835,1546529544,-40.366135,-20.774921,135.416351,12.327424,-5.563012,-5.207289,-86.847641,-220.756638,604.629456
836,1546546211,-43.320435,-17.97834,143.825378,15.782057,0.598214,-1.633016,-8.842691,-194.987717,468.894562
837,1546562878,-41.265785,-16.464773,147.951889,14.873214,9.589131,0.579532,197.241486,-94.055664,238.2117
838,1546579545,-36.129887,-15.473309,147.872314,11.397459,12.222857,-2.657473,307.632385,47.479778,35.40419
839,1546596212,-32.021637,-15.088557,144.382523,11.389283,9.595942,-4.047763,192.146149,130.6091,-152.897583
840,1546612879,-29.353531,-15.816719,138.120941,11.283866,3.51562,-5.455356,60.835316,145.661102,-332.481995
841,1546629546,-26.620644,-16.580496,129.677841,8.414204,-3.156481,-7.293289,23.434645,186.315002,-450.147003
842,1546646213,-23.894484,-16.623659,119.749405,5.895241,-6.994319,-8.052507,-5.92623,239.657104,-516.722717
843,1546662880,-21.773394,-15.428383,108.583328,4.16935,-8.733994,-7.648932,-56.955338,314.156525,-565.239136
844,1546679547,-20.346344,-12.719753,95.794792,3.168373,-11.389709,-4.45648,-100.150681,416.867432,-636.110352
845,1546696214,-18.883579,-8.940911,80.542778,-2.945745,-14.883287,-1.059729,-83.450378,512.445129,-770.903259
846,1546712881,-17.19495,-4.689255,63.834606,-11.589013,-14.729855,2.508572,-17.022034,547.457153,-867.982666
847,1546729548,-15.214854,-0.410687,46.48164,-19.057791,-9.981817,3.53512,72.949333,533.138428,-927.458496
848,1546746215,-13.450444,4.251299,29.7826,-22.716089,-1.732929,4.189908,140.046295,514.987366,-900.857239
849,1546762882,-12.186665,9.884313,15.155232,-21.9259,7.595432,5.577525,184.690323,518.696289,-773.63446
850,1546779549,-11.887271,15.935827,4.013548,-16.060698,15.859496,7.496233,168.423538,487.198883,-560.147949
851,1546796216,-12.625008,21.228203,-3.37345,-7.847027,17.449406,9.860128,97.940926,396.070801,-341.074036
852,1546812883,-13.434044,24.985292,-8.156444,-2.212576,15.011768,11.770323,64.726387,275.861694,-204.01207
853,1546829550,-13.531162,27.213781,-11.577292,0.209424,14.770037,11.581232,84.893974,169.781174,-145.695251
854,1546846217,-13.107133,28.581432,-13.300951,-0.128325,14.148911,9.982124,74.116173,97.733154,-67.697006
855,1546862884,-12.681372,29.60774,-13.446849,1.426107,12.150216,7.9881,29.95343,58.565144,8.581264
856,1546879551,-12.547649,30.133242,-12.471815,2.530869,9.276503,6.682558,-21.074102,16.55612,58.602463
857,1546896218,-12.658631,30.249559,-10.951765,2.65955,6.80951,4.742786,-52.560825,-13.464198,80.561821
858,1546912885,-13.295953,30.193245,-9.196597,3.058744,5.460193,3.550188,-91.329765,-26.73905,89.916267
859,1546929552,-15.407695,30.0343,-7.612675,2.758389,4.61918,2.17316,-174.491867,-32.569618,79.162384
860,1546946219,-19.194666,29.542,-5.659874,3.202771,5.925492,2.372053,-285.538971,-61.364033,90.06044
861,1546962886,-24.849783,28.254303,-2.585586,2.140238,7.378056,4.464619,-428.525787,-135.101151,122.380104
862,1546979553,-31.973396,25.231874,2.587618,-0.507605,7.700353,8.108963,-566.976074,-294.416168,159.176575
863,1546996220,-39.536777,20.516516,9.293139,-1.108475,7.001407,7.839676,-609.81842,-449.351746,137.273087
864,1547012887,-47.289558,15.208764,16.808365,-4.106219,8.539638,6.033158,-602.922729,-529.518188,94.739937
865,1547029554,-54.430679,9.883726,24.878151,-6.086689,5.750037,3.347188,-533.118103,-571.50354,52.440838
866,1547046221,-59.788136,5.915468,32.658226,-8.174158,-0.914397,4.826885,-385.480591,-520.771362,52.972755
867,1547062888,-62.62804,3.679264,40.202038,-8.630315,-7.826599,6.608814,-208.492081,-463.173157,101.360901
868,1547079555,-63.213558,2.153644,48.746216,-6.371241,-11.646449,3.759649,-61.662395,-500.913727,153.338058
869,1547096222,-63.627052,0.358338,57.831985,-1.676373,-12.222629,0.330415,-37.174328,-539.058838,149.481796
870,1547112889,-64.452736,-2.370689,66.79702,6.401901,-11.398682,0.169075,-40.324921,-558.653503,90.388733
871,1547129556,-64.92955,-4.230694,72.064613,10.648159,-5.133259,-1.150765,-10.494954,-336.276794,35.94907
872,1547146223,-64.883041,-5.593561,72.725456,10.369872,-6.150973,-0.252417,6.302047,-73.551529,-55.47551
873,1547162890,-63.835632,-7.81228,72.908875,10.030225,-4.080404,2.263869,64.444023,-70.315506,-113.559471
874,1547179557,-61.664288,-10.027375,73.60009,8.467256,-4.26652,2.91139,137.20047,-99.895523,-97.740685
875,1547196224,-58.43272,-12.939824,73.797821,6.494102,-4.162203,2.264425,196.876251,-99.725037,-144.023209
876,1547212891,-53.846134,-16.116026,73.643974,4.385623,-6.837663,1.481896,273.588104,-101.006607,-161.720703
877,1547229558,-48.521973,-19.538668,73.660873,4.368425,-5.641274,-0.440571,320.541199,-131.622528,-157.974243
878,1547246225,-42.553062,-22.588112,73.282547,5.081888,-5.450065,-1.308977,350.839569,-115.072639,-144.070175
879,1547262892,-37.200039,-26.103809,72.330826,5.17884,-5.780945,-1.512909,298.543488,-130.431335,-173.91066
880,1547279559,-32.006504,-30.51189,70.064186,4.544443,-5.088238,-2.831965,247.983215,-151.471085,-247.619003
881,1547296226,-26.322111,-34.933517,66.653801,2.926776,-5.38368,-4.441294,231.274521,-149.428497,-278.580872
882,1547312893,-19.862825,-39.15279,61.506153,1.972294,-4.914935,-6.919709,202.221466,-137.710098,-325.08371
883,1547329560,-12.458105,-42.759151,54.620461,0.931445,-3.856178,-9.253836,174.100342,-122.414139,-358.932129
884,1547346227,-4.534409,-45.909184,46.350971,-1.259464,-2.794412,-11.348869,129.222961,-135.832428,-377.930145
885,1547362894,4.060112,-48.605942,36.761642,-3.005252,-0.286285,-12.76687,93.588486,-161.462875,-390.101715
886,1547379561,12.755636,-50.005013,26.716763,-4.40518,2.54194,-13.960623,65.366714,-141.961731,-375.314636
887,1547396228,18.876287,-49.463528,19.334822,-4.401511,5.099389,-16.503294,30.311071,-48.568375,-283.126221
888,1547412895,24.394657,-47.497292,13.805704,-8.270301,12.067231,-18.444611,83.859367,26.721861,-246.668594
889,1547429562,26.970943,-44.572784,10.597241,-6.378376,11.681499,-14.053008,17.30694,98.43541,-195.028732
890,1547446229,26.592464,-40.491322,10.366731,-8.110744,10.715595,-13.00668,-30.695604,212.338181,-117.782814
891,1547462896,24.703768,-36.30941,11.227809,-9.918119,6.050737,-11.585116,-79.835564,242.042618,-70.172096
892,1547479563,22.479265,-31.816936,12.859337,-10.05354,3.753041,-9.619286,-77.232941,277.75058,-31.333237
893,1547496230,20.358179,-27.143867,14.638487,-10.149269,0.681935,-7.551786,-73.3694,293.16394,-13.38311
894,1547512897,18.283092,-21.891962,16.774763,-9.575055,-0.40086,-5.189781,-70.014305,334.060852,8.556012
895,1547529564,15.939772,-16.311449,18.884483,-9.675107,-1.344304,-3.928598,-97.987022,353.214111,18.780205
896,1547546231,13.450498,-9.954871,20.745422,-9.327731,-2.030108,-2.527216,-122.951004,394.391357,11.599618
897,1547562898,10.479853,-3.100159,22.507347,-8.962246,-2.190242,-0.418799,-165.376892,421.862885,20.795095
898,1547579565,6.620431,3.80671,24.19808,-7.251612,-2.067318,1.490875,-231.574097,422.458496,42.080204
899,1547596232,2.317446,11.097824,25.353325,-4.93565,-2.879578,3.692224,-266.809937,438.872406,37.740383
900,1547612899,-1.355226,19.121815,25.81624,-2.235541,-2.606296,6.429356,-227.536057,478.810852,25.870596
901,1547629566,-4.086491,28.101126,25.763414,-0.620713,-2.51652,9.68099,-162.832947,535.291565,25.465639
902,1547646233,-6.321669,37.163895,25.113997,4.754714,-1.192418,11.57093,-113.574226,541.418152,19.056728
903,1547662900,-7.822791,44.42786,24.886929,10.859185,-1.364982,15.122889,-81.880219,430.760315,45.488335
904,1547679567,-10.042933,49.416229,24.127258,16.259552,0.238181,15.954578,-100.515427,297.63327,17.439941
905,1547696234,-11.426027,53.083061,22.928778,17.26103,1.350523,14.532808,-27.264061,221.897202,-1.793371
906,1547712901,-12.803748,54.917397,21.366825,15.756555,2.162473,13.375231,-6.887249,116.783257,-29.48439
907,1547729568,-13.426758,55.071438,20.204805,13.548506,3.081788,15.191721,19.989502,15.939301,-35.688335
908,1547746235,-12.860587,53.689831,19.81966,11.525305,3.056051,14.004843,53.275894,-79.586754,-30.865776
909,1547762902,-11.433869,51.409279,19.764362,9.623835,2.260692,14.791691,88.955635,-135.087692,-29.738375
910,1547779569,-9.759017,47.691071,19.728558,6.719137,1.28666,15.991768,102.987068,-220.62677,-41.427971
911,1547796236,-7.88297,42.589924,19.849436,2.304234,-0.184831,16.18001,108.345161,-304.732635,-40.96225
912,1547812903,-5.905922,36.158531,20.318478,-1.241924,0.483421,13.693659,101.660301,-387.176971,-23.812025
913,1547829570,-3.626215,28.538509,21.432318,-3.594824,0.439483,10.40737,101.776878,-461.79422,19.243433
914,1547846237,-0.909438,20.271542,22.95435,-6.321986,-0.931454,5.35281,125.870674,-500.449219,64.540398
915,1547862904,2.530662,12.078689,24.58283,-7.791366,-2.910376,0.09358,179.657761,-491.825439,102.013451
916,1547879571,7.64722,5.118951,26.015574,-7.301126,-4.091144,-4.851839,294.574341,-410.190613,123.115211
917,1547896238,11.62625,-0.011533,26.959667,-5.8983,-3.376376,-7.810096,236.909164,-295.808441,108.870377
918,1547912905,14.436564,-2.242148,26.333305,-7.136435,-1.784886,-10.575959,168.746445,-140.655518,-4.770857
919,1547929572,17.473864,-1.884105,23.733925,-3.436806,-1.257873,-11.126326,177.486191,-24.007303,-153.950745
920,1547946239,21.362444,-0.580353,20.141479,-0.835441,0.411963,-11.853857,229.500565,0.303539,-227.370834
921,1547962906,26.107861,1.873047,16.714788,-0.248599,0.457876,-10.03419,287.822754,50.213451,-245.585403
922,1547979573,30.72938,4.354391,13.345578,-0.214352,0.489556,-9.966194,289.051544,33.140736,-246.51413
923,1547996240,35.21534,6.858884,10.006001,-0.167702,0.514462,-9.912448,289.513794,15.855247,-247.206757
924,1548012907,39.553284,9.385254,6.667293,-0.119611,0.540469,-9.882451,289.360016,-1.595745,-247.742493
925,1548029574,43.734406,11.936914,3.307937,-0.074981,0.545801,-9.828783,288.935608,-18.801422,-247.898788
926,1548046241,47.741562,14.521165,-0.094357,-0.01439,0.566489,-9.800592,287.927307,-35.636787,-247.887726
927,1548062908,51.550995,17.142374,-3.560471,0.048859,0.555281,-9.770556,286.085907,-52.138382,-247.565048
928,1548079575,55.127628,19.805182,-7.112666,0.089081,0.544813,-9.744456,282.918762,-68.229027,-247.037079
929,1548096242,58.432037,22.508183,-10.779273,0.16305,0.517656,-9.719029,278.457733,-84.216576,-246.268707
930,1548112909,61.421242,25.25411,-14.586397,0.217411,0.492881,-9.701463,272.629822,-99.593353,-245.448395
931,1548129576,64.045586,28.039257,-18.561195,0.265366,0.430727,-9.690588,265.231354,-114.28952,-244.411957
932,1548146243,66.252647,30.850458,-22.75178,0.283666,0.398428,-9.685658,256.851715,-129.149216,-243.301178
933,1548162910,67.988525,33.674744,-27.199549,0.324137,0.340632,-9.675179,247.451233,-143.361725,-242.097229
934,1548179577,69.182182,36.487972,-31.946547,0.336187,0.295881,-9.648368,236.182938,-156.674301,-240.480087
935,1548196244,65.708778,50.768593,-29.351212,-6.182919,-5.748719,4.787272,-314.194946,431.777618,-746.359009
936,1548212911,65.028053,77.361389,-15.324026,8.421044,-12.491642,16.234612,-803.151978,998.036743,-1286.822021
937,1548229578,-3.834183,85.358521,-79.476646,-4.8493,12.401145,13.671181,-308.613525,69.060989,-678.721619
938,1548246245,-98.664833,78.066055,-174.689896,0.943288,-0.991909,-6.953768,-5.461247,385.275208,-688.018188
939,1548262912,-99.451889,67.03299,-176.1931,1.443507,-0.290477,-8.351811,39.698063,129.017014,-647.922791
940,1548279579,-97.356476,56.148163,-175.338898,0.69667,0.622297,-6.561185,80.887192,69.279396,-648.18457
941,1548296246,-92.542229,44.828518,-172.368439,-0.979819,-0.216836,-1.442168,150.948135,-56.648853,-684.840637
942,1548312913,-85.578979,37.751896,-169.203506,-9.673247,-0.204746,-3.321255,292.686066,-151.853226,-420.685303
943,1548329580,-74.96032,34.559772,-165.633835,-2.508409,0.836389,-8.119019,511.284149,-205.194565,-157.890106
944,1548346247,-62.682983,31.858444,-160.734985,8.702386,-13.968891,2.479184,576.094299,-290.282745,-60.384602
945,1548362914,-62.303669,28.582451,-160.419357,5.775247,-4.991208,-3.001337,14.130102,-107.178017,-165.03804
946,1548379581,-60.675411,26.097334,-160.624222,5.029219,-1.885107,-0.710911,104.248764,-63.371479,-134.613068
947,1548396248,-58.811741,24.418955,-161.167847,7.142608,-1.963191,-1.615379,126.674438,-26.986946,-100.328728
948,1548412915,-56.030636,21.966124,-160.731995,4.912143,-0.954388,-3.167463,157.506592,-101.152718,-109.703415
949,1548429582,-52.013832,20.002308,-161.606995,5.022955,-2.291911,-1.109255,260.759888,-31.154297,-122.908875
950,1548446249,-47.746635,17.821756,-163.675766,4.117156,-4.040544,2.59343,297.177734,3.946937,-174.605667
951,1548462916,-43.600689,16.014565,-165.88649,3.732534,-0.633608,5.519914,288.248169,13.500433,-165.225891
952,1548479583,-38.753716,14.330138,-168.230743,5.211567,3.09516,7.116199,328.514618,11.784433,-167.807053
953,1548496250,-30.610592,12.318542,-169.259628,0.770504,6.879266,4.940037,503.730377,-66.706635,-117.326393
954,1548512917,-18.348907,9.427624,-169.13855,-1.264612,3.157432,10.811304,735.212219,-162.776535,-64.644524
955,1548529584,-9.723731,6.40157,-169.629013,-5.862409,4.371473,16.405382,522.507141,-170.918732,-71.475899
956,1548546251,-2.086712,3.510453,-170.346893,-6.093882,11.59838,17.63212,462.949738,-169.904922,-59.548119
957,1548562918,2.931282,2.308925,-169.358109,-5.448469,12.35375,17.845783,299.283661,-73.270531,60.939877
958,1548579585,5.313084,4.529764,-167.261002,-4.6181,11.384057,13.720072,136.731232,140.378525,116.941559
959,1548596252,6.095611,8.488512,-164.291595,-7.213163,8.46023,9.273342,28.185734,252.370743,153.880066
960,1548612919,6.591196,12.139594,-159.999451,-10.552618,4.572359,7.04294,-14.879353,244.147812,229.098694
961,1548629586,6.92963,15.951661,-153.118652,-13.009472,1.172779,5.560988,-78.389969,272.618103,372.49173
962,1548646253,7.926257,19.837423,-143.530807,-11.994777,1.21666,0.655087,-115.60054,300.102478,514.638
963,1548662920,10.680952,23.519449,-132.258865,-8.939392,1.79198,-3.584877,-83.563904,317.591003,586.57489
964,1548679587,16.659611,26.445847,-119.315308,-7.687125,-4.187252,-7.611246,30.889267,334.855072,644.609985
965,1548696254,27.015064,26.65377,-103.303772,-5.40021,-7.862327,-9.454739,190.185318,329.763947,794.841553
966,1548712921,39.128223,22.752926,-86.45787,-3.143183,-6.985347,-11.449895,301.199799,305.20932,898.277893
967,1548729588,49.476902,15.812291,-71.293892,0.02148,-8.056311,-11.499463,317.854309,302.812439,906.246094
968,1548746255,55.950039,6.854439,-58.478317,2.59332,-6.597369,-8.811646,236.402634,275.127258,885.107239
969,1548762922,57.399448,-1.460312,-49.571823,1.83426,-6.768664,-7.296315,63.141842,171.673203,711.4104
970,1548779589,55.140789,-7.964375,-42.447258,6.456568,-8.603149,-8.033672,-98.354202,136.773895,562.646606
971,1548796256,49.96299,-13.606375,-37.058846,9.929628,-8.578197,-5.362651,-247.968414,45.113949,463.509552
972,1548812923,43.618046,-19.589132,-33.085815,12.35696,-4.270486,-5.524646,-310.421204,-80.681015,419.636841
973,1548829590,38.704006,-25.511562,-29.01758,12.736739,-1.490623,-4.620993,-199.258926,-120.619064,404.912842
974,1548846257,35.25835,-29.829666,-24.392969,10.730413,1.586086,-0.98109,-76.22657,-60.635941,353.230804
975,1548862924,31.832916,-32.762924,-20.39242,6.309551,5.823635,2.184707,-79.399109,-34.896969,269.178894
976,1548879591,28.611469,-34.417011,-18.639187,2.959885,9.60327,1.399827,-133.839767,-43.248062,126.655067
977,1548896258,26.658085,-34.271412,-19.395845,0.564817,9.295906,1.637319,-141.677826,-11.240191,-36.260971
978,1548912925,25.796806,-31.926249,-22.05555,-2.641244,6.308681,1.96428,-137.738007,65.521614,-181.062653
979,1548929592,25.729845,-26.721546,-26.253214,-3.85427,4.295658,2.878808,-126.34005,184.010086,-332.397827
980,1548946259,25.756454,-18.290359,-31.300226,-4.18143,3.630666,5.603517,-113.353889,332.079498,-470.641235
981,1548962926,25.080732,-6.627857,-37.532223,-3.219791,4.191303,9.741343,-120.089355,472.699585,-629.213562
982,1548979593,22.428282,8.04351,-45.972862,1.474559,5.273168,16.144659,-150.624664,597.986816,-817.554993
983,1548996260,14.372996,23.83699,-57.826786,14.725993,-1.733904,21.533714,-281.636688,677.671448,-947.979797
984,1549012927,-2.751977,36.466881,-74.577812,22.271666,-10.906388,9.986624,-510.94931,658.579041,-941.566711
985,1549029594,-27.97617,43.031731,-97.600685,22.577709,-12.694221,-9.596401,-614.906616,653.681274,-919.684021
986,1549046261,-51.82217,41.588787,-120.816978,13.640461,-6.462982,-24.770226,-481.146667,592.538391,-842.611023
987,1549062928,-64.470688,34.68042,-138.229233,-5.020451,6.546052,-32.218056,-107.721657,479.450531,-781.734314
988,1549079595,-63.595352,25.884064,-149.05986,-11.020121,1.71608,-25.248446,381.457672,273.338013,-718.645508
989,1549096262,-56.451134,18.03421,-154.547821,-19.723841,-6.657182,-19.709785,552.059082,28.161703,-560.360229
990,1549112929,-44.200356,12.442106,-158.512894,-15.078849,-12.487473,1.981065,797.832031,-39.039696,-404.834045
991,1549129596,-34.788597,5.234988,-161.195877,-11.035881,-7.694753,13.282961,589.635925,-234.281662,-397.278931
992,1549146263,-27.750645,-0.92613,-165.375519,-9.939445,4.300682,6.234219,432.112091,-187.384277,-405.215881
993,1549162930,-20.702692,-6.710385,-169.918564,-7.782921,9.07921,4.075706,405.189667,-206.339813,-389.44696
994,1549179597,-12.424597,-13.918979,-173.416916,-2.07573,8.068122,0.22107,459.410706,-357.292389,-320.274719
995,1549196264,-3.867551,-21.080765,-177.438492,-6.582458,4.068488,9.997807,441.162445,-394.297028,-287.740448
996,1549212931,2.812115,-23.520958,179.705261,-3.972469,3.953347,17.045586,336.866364,-146.373505,-158.695465
997,1549229598,5.37129,-23.695194,179.632889,-2.060727,4.339609,12.369392,153.099915,-12.078328,-1.963697
998,1549246265,6.518585,-22.843069,-179.044067,-1.633213,4.140885,7.532372,101.515854,57.05085,68.486755
999,1549262932,7.165597,-20.73311,-176.649139,-2.311127,4.391806,7.884935,93.501022,140.224365,118.641769
1000,1549279599,8.656859,-17.967457,-173.718292,-1.358135,3.229986,3.883771,149.095642,185.827225,142.75528
1001,1549296266,11.463531,-14.42661,-170.830688,0.847474,1.980931,3.941545,218.053009,236.894684,127.98452
1002,1549312933,14.62399,-10.427084,-168.409286,1.80064,1.14823,4.790225,222.200272,264.446716,85.315437
1003,1549329600,17.114508,-7.042207,-166.220154,1.544302,1.173185,6.121633,170.720764,229.460312,70.573982
1004,1549346267,18.120697,-4.941796,-163.967636,-1.030621,-0.153384,4.504204,75.866257,159.364273,91.170792
1005,1549362934,16.439262,-2.012826,-161.610489,-2.818974,-0.996915,1.678533,-90.870758,208.3022,83.825706
1006,1549379601,13.301775,1.803393,-160.297394,-0.271098,-2.882752,-3.025668,-186.634308,240.136307,18.639666
1007,1549396268,11.161745,3.909588,-159.78511,1.726503,-3.305505,-4.463851,-128.557022,128.600082,4.483866
1008,1549412935,9.165159,4.916756,-159.167526,0.24708,-2.581701,-3.000344,-121.314613,64.570572,26.950594
1009,1549429602,6.059353,7.148691,-157.709824,-1.348958,-2.726568,-0.510381,-194.200546,142.825485,69.738319
1010,1549446269,1.934496,11.687668,-157.412506,-0.395689,-2.312989,1.01799,-248.998428,271.516663,-0.150688
1011,1549462936,-1.675361,15.712877,-157.792908,-1.012605,-2.191463,-0.06391,-209.842941,240.046021,-21.441809
1012,1549479603,-4.113751,17.251225,-158.665146,0.51615,-1.890954,-4.66257,-130.217621,93.271378,-44.166962
1013,1549496270,-5.234121,17.100815,-159.079636,0.876708,-0.795179,-6.780341,-58.670132,-8.513346,-23.130623
1014,1549512937,-4.625715,17.202887,-159.170044,-0.447664,-0.510688,-6.328426,39.302467,5.082951,-3.361519
1015,1549529604,-2.813597,18.065804,-159.316162,-1.032669,-1.607805,-2.564859,112.573814,50.750507,-3.710353
1016,1549546271,-1.65277,19.280474,-159.374374,-1.342377,-2.435682,0.235175,71.946297,71.507423,0.798204
1017,1549562938,-1.470131,20.349806,-159.244751,-1.551288,-1.981434,-0.652596,9.486715,62.504921,10.325109
1018,1549579605,-2.06008,21.227509,-159.150101,-0.304028,-1.222808,-2.314188,-36.258377,51.054409,8.191871
1019,1549596272,-2.924603,21.868246,-159.199615,0.50316,-0.771948,-3.875413,-49.635071,37.108776,0.173163
1020,1549612939,-3.249874,22.693079,-159.187515,0.007188,-0.485482,-3.057265,-18.652407,47.955063,4.589141
1021,1549629606,-2.888896,24.223364,-159.29007,-0.252426,-0.644979,-1.840833,25.240582,90.557648,0.526492
1022,1549646273,-2.224381,25.985876,-159.258224,-1.238537,-1.352573,-1.298863,40.183586,104.139992,7.685564
1023,1549662940,-2.134288,27.52463,-159.069168,-1.149592,-1.004944,-1.938078,1.415239,90.456009,14.871488
1024,1549679607,-3.362947,29.278576,-159.160553,-1.931142,0.140483,-2.905376,-69.996262,103.93782,1.470141
1025,1549696274,-4.874931,30.577303,-159.337784,1.168998,0.550165,-2.681293,-84.300415,76.984123,-2.339431
1026,1549712941,-4.754453,30.502535,-159.212173,2.924378,-0.565672,-2.18857,4.511314,-6.432377,7.337484
1027,1549729608,-3.801282,29.635456,-158.406067,1.984177,0.189443,-2.846681,34.066536,-56.440273,39.080643
1028,1549746275,-1.933904,27.311914,-157.055847,0.114902,-0.333502,-2.352312,74.516495,-144.250168,65.357178
1029,1549762942,-0.911285,24.607466,-154.761963,-0.419798,-0.935987,-1.373297,2.215157,-166.718628,120.886711
1030,1549779609,-1.669777,21.864986,-153.753922,-3.093255,-3.274323,-2.544893,-68.228134,-167.205963,53.06142
1031,1549796276,-3.174762,20.248749,-152.619644,-1.901172,1.050255,-2.280399,-113.615715,-100.991814,60.579647
1032,1549812943,-3.164143,17.287661,-150.821869,-1.571934,0.296391,-1.259105,-32.923977,-184.437042,93.403481
1033,1549829610,-1.887592,12.385672,-147.850281,-1.017848,-0.245823,-1.383318,32.033588,-302.764404,160.524734
1034,1549846277,-0.603218,7.575744,-143.540298,-1.392752,-2.124272,0.045892,33.350964,-295.321259,249.675598
1035,1549862944,-1.317727,5.637691,-139.239563,1.15576,-3.529824,-0.438922,-71.313843,-121.89389,255.607651
1036,1549879611,-3.241168,4.568321,-135.142761,0.292236,-0.196119,1.179771,-136.001526,-75.209373,243.351059
1037,1549896278,-4.707062,3.251857,-130.916992,-0.47875,1.596646,0.014156,-103.966217,-97.691635,248.136002
1038,1549912945,-2.830759,1.901806,-127.36425,-1.842251,3.21262,-3.987689,104.213463,-96.212715,208.422974
1039,1549929612,1.800829,0.788863,-125.361282,-1.590716,-0.582271,-2.271137,276.337494,-69.286598,120.814529
1040,1549946279,6.791307,0.140456,-122.046394,-0.229925,-3.119995,-1.89716,299.049591,-25.299582,202.530258
1041,1549962946,9.98023,0.895989,-118.69693,0.666547,-1.02545,1.122503,190.781815,72.764915,193.434204
1042,1549979613,11.863595,1.173923,-115.683418,0.471316,0.344909,1.50638,111.032051,49.23634,175.544189
1043,1549996280,13.660989,0.658961,-112.273308,0.571619,-4.375313,-0.863618,105.869484,13.667401,207.538574
1044,1550012947,16.228991,2.091853,-105.506668,0.723526,-6.736693,-2.651202,145.473984,186.273575,371.201416
1045,1550029614,18.551226,5.196611,-95.651131,-0.470556,-0.362547,-0.669435,102.700958,352.386871,508.838654
1046,1550046281,20.040545,5.719685,-89.099113,-4.495323,5.006089,1.568098,53.237373,157.536133,360.141357
1047,1550062948,22.351698,3.903461,-85.136032,-0.727185,1.082294,-3.012917,120.085739,-17.308575,261.514435
1048,1550079615,25.425573,2.235182,-81.662811,1.163328,-2.362945,-1.718423,174.651428,-8.669496,232.009094
1049,1550096282,28.076746,-0.272114,-77.379395,0.583196,-4.291155,-0.49055,156.018677,-20.048939,298.347748
1050,1550112949,29.530401,-3.926794,-72.250481,-2.487445,-3.091499,-1.508727,99.877716,-45.27121,376.237793
1051,1550129616,30.964165,-8.711635,-67.47287,-2.02716,-0.962568,-6.916526,119.011528,-105.758568,391.855103
1052,1550146283,35.381062,-13.435964,-64.719383,1.371334,-0.529016,-9.544324,298.114594,-150.012741,291.996552
1053,1550162950,40.506397,-18.008013,-63.092037,2.572385,-3.507773,-4.173719,335.351715,-160.0905,243.95195
1054,1550179617,42.258034,-23.006418,-60.480907,3.255481,-5.551517,0.250923,161.459961,-129.484222,309.374695
1055,1550196284,39.322979,-27.624023,-55.57579,0.27213,-3.331471,-0.440885,-48.502537,-37.308159,383.266327
1056,1550212951,33.223186,-31.913488,-50.072998,0.949616,-1.453387,-2.147745,-200.081558,-39.283989,384.169495
1057,1550229618,27.331947,-35.44334,-44.43243,2.323364,-1.141414,-2.378543,-163.905548,-42.300289,350.816895
1058,1550246285,21.375729,-39.143307,-38.868786,0.32249,-0.455767,-1.170827,-153.239838,-94.118889,334.28598
1059,1550262952,14.720285,-42.231476,-32.95298,-1.111969,-1.32446,-0.066077,-166.064545,-94.199806,314.105133
1060,1550279619,8.790294,-44.574478,-27.90041,-1.229274,0.751284,-0.954529,-145.767532,-94.269562,245.082031
1061,1550296286,5.251629,-45.901691,-24.497993,-2.314159,1.899813,1.362716,-65.789299,-63.074837,153.232086
1062,1550312953,3.128318,-45.764275,-22.052618,-3.383821,1.254779,2.4612,-20.608255,14.009686,102.20311
1063,1550329620,1.845877,-44.246117,-20.065762,-4.311931,1.555316,2.973848,8.918252,92.918785,81.133408
1064,1550346287,0.047202,-42.42662,-18.419888,-3.374997,1.982795,3.259298,-38.561897,108.540459,70.924561
1065,1550362954,-5.036231,-42.279064,-16.906914,-0.940528,3.425144,1.266846,-242.256027,4.089282,68.354195
1066,1550379621,-8.130427,-43.379036,-16.227077,0.513405,-0.531454,2.827245,-156.35936,-70.8508,23.097956
1067,1550396288,-10.273272,-44.565834,-15.208551,-0.177446,1.869459,3.365589,-84.586632,-79.162949,32.953762
1068,1550412955,-13.653276,-44.870182,-13.240467,1.204073,2.459635,4.255023,-118.176971,-37.105896,79.230026
1069,1550429622,-16.878857,-44.269402,-11.565084,2.203171,3.464752,3.076583,-121.487251,14.070707,79.516167
1070,1550446289,-18.064884,-43.402313,-11.385576,0.547504,3.906737,2.973013,-62.251335,45.458115,23.993359
1071,1550462956,-18.550415,-41.725868,-11.861851,0.757303,2.281631,2.45537,-47.044018,100.26236,12.607576
1072,1550479623,-18.638655,-40.242764,-12.338121,-0.230713,-0.459108,0.922745,-22.641592,89.374702,8.944283
1073,1550496290,-19.639452,-40.031601,-11.817728,-0.022171,-0.473264,0.429399,-38.52338,2.302478,27.716894
1074,1550512957,-20.489243,-40.096931,-10.894541,-0.25209,2.325301,0.610125,-13.935642,-20.065922,39.481602
1075,1550529624,-21.557072,-40.485443,-9.862894,0.983566,2.601031,-0.013459,-22.663265,-40.551151,36.730427
1076,1550546291,-22.367395,-40.769135,-7.966473,6.241671,6.564533,1.763339,26.814838,-49.937183,74.762436
1077,1550562958,-26.008869,-37.245651,-0.072918,5.493021,1.899173,1.545317,81.177048,39.901825,423.216644
1078,1550579625,-28.365229,-32.442635,3.870223,-0.329678,0.146046,2.044154,-4.858173,165.740128,305.48233
1079,1550596292,-31.23382,-26.742718,7.471989,1.906322,3.519941,2.022021,-63.991749,201.492599,334.140198
1080,1550612959,-33.965908,-21.126884,12.626741,-2.103059,2.915553,2.033097,-37.050758,129.574997,420.772736
1081,1550629626,-36.253727,-17.934401,17.670082,-0.29681,1.847741,2.898456,-34.897945,-9.199518,344.557556
1082,1550646293,-37.978363,-16.275148,21.704729,0.521096,-0.690277,3.484802,-31.177895,-62.010769,245.70813
1083,1550662960,-39.56424,-16.147285,24.365507,0.824012,-1.146674,2.777145,-49.510426,-91.746895,125.47921
1084,1550679627,-39.972427,-16.542063,26.645151,0.123629,0.813514,0.633987,15.074694,-103.876701,86.886414
1085,1550696294,-39.603352,-16.792137,28.440071,-0.796277,0.783301,0.737638,54.091354,-79.260262,70.840492
1086,1550712961,-39.649986,-16.849192,30.441244,-0.65692,1.969642,1.66433,32.998184,-77.653893,87.51178
1087,1550729628,-41.067307,-16.338268,32.998451,-1.622266,2.163593,2.077968,-40.179672,-73.579994,133.080994
1088,1550746295,-43.632542,-15.568185,36.726482,-1.298691,1.647072,1.257139,-91.384827,-112.47747,191.2686
1089,1550762962,-45.378056,-14.600264,39.941002,-0.258484,-1.192427,-0.821176,-53.539478,-90.865242,174.729858
1090,1550779629,-44.795586,-13.777397,41.598167,-0.13617,-1.409963,-0.729144,60.294971,-35.141922,104.234512
1091,1550796296,-43.061317,-13.177563,42.362331,-1.534971,0.162461,0.262853,115.727242,-6.745941,58.288261
1092,1550812963,-40.900558,-12.881382,43.000507,-1.959675,0.370243,0.073152,139.249741,-13.489001,40.830353
1093,1550829630,-38.377823,-12.45681,43.924137,-2.374417,-0.290603,-0.114758,164.469452,-16.64193,59.113438
1094,1550846297,-35.950768,-11.961259,44.941719,-2.51333,-0.398226,-0.15246,159.466766,-14.143449,66.749496
1095,1550862964,-33.969177,-11.196554,46.012718,-1.948445,-1.610767,-1.414089,132.70578,-0.282378,79.12162
1096,1550879631,-31.672602,-10.185089,46.71693,-1.199001,-2.306418,-2.175689,146.538391,26.660028,69.021667
1097,1550896298,-28.714901,-8.85916,46.984623,0.081328,-1.323243,-2.380575,181.027206,58.945358,54.930729
1098,1550912965,-26.64592,-7.675004,46.448021,0.001471,0.484212,-2.187826,120.433723,75.865433,6.008062
1099,1550929632,-25.031618,-6.878871,44.87323,0.665617,-1.704688,-2.450497,85.807739,81.990524,-62.316978
1100,1550946299,-22.29339,-5.571025,42.244228,0.032433,-1.062983,-1.748536,148.106049,132.950577,-110.941338
1101,1550962966,-19.281797,-3.442744,39.21986,-0.789967,-2.384573,-0.555661,167.341278,181.712479,-122.633148
1102,1550979633,-17.037167,-0.729051,37.105213,1.27997,-1.981098,0.583776,131.01033,192.330475,-68.562889
1103,1550996300,-15.330853,3.051298,40.213367,1.2043,-1.643638,-2.406007,99.554649,163.923172,243.474915
1104,1551012967,-12.067555,5.228862,43.932884,-5.535297,-2.714714,-2.843338,180.62175,72.315857,248.39888
1105,1551029634,-9.091828,6.026961,45.705204,-1.066682,1.125036,-2.432466,169.080139,25.698067,114.024391
1106,1551046301,-6.4156,5.917931,46.879818,-1.445913,-1.17857,-1.837153,154.18718,-17.870346,69.788986
1107,1551062968,-4.270591,5.70457,47.465137,-0.206594,0.265931,-1.165042,126.088234,-17.949205,34.830017
1108,1551079635,-2.350149,5.251702,47.445129,-1.089883,-0.119539,-0.559448,116.281647,-28.999668,-1.515491
1109,1551096302,-0.611448,5.127673,47.372147,-1.486829,-0.071144,0.010318,105.650299,-9.274331,-3.288123
1110,1551112969,0.763848,4.850291,47.260941,-1.280984,-0.277655,-0.245335,84.016273,-18.610008,-5.344934
1111,1551129636,0.047997,1.247211,47.841972,-0.011666,-2.005251,-0.851523,-43.876179,-217.898422,37.648186
1112,1551146303,-3.450283,-9.40939,49.890667,-1.012065,-1.118653,-1.761766,-199.551208,-644.760986,105.075851
1113,1551162970,-7.217163,-25.17524,52.812397,0.561627,-0.451011,-0.354042,-171.269821,-959.348938,80.617676
1114,1551179637,-4.910652,-28.780525,52.102123,2.418752,3.437311,12.133583,120.047997,-213.113052,-59.26754
1115,1551196304,-3.245178,-27.653868,50.307491,3.685117,0.756716,-1.712966,50.056038,72.222244,-88.465225
1116,1551212971,-2.027236,-26.066164,49.845871,3.128798,0.313234,6.398561,61.625996,94.402443,-18.978294
1117,1551229638,-2.370369,-25.120594,49.66526,3.533646,0.449904,3.113871,-24.178789,55.210335,-6.303226
1118,1551246305,-2.602969,-23.996252,49.309265,4.08281,0.036062,3.322341,-21.720274,66.425964,-15.239858
1119,1551262972,-2.910912,-22.514236,48.676689,3.858586,0.188578,3.851237,-32.31554,88.724777,-29.360872
1120,1551279639,-2.87476,-21.055944,47.249165,3.117169,-0.689969,4.189941,-28.443596,89.671455,-73.873573
1121,1551296306,-1.618961,-21.188419,45.066467,3.27665,-1.73616,4.367017,29.356503,-4.844934,-121.270805
1122,1551312973,0.421718,-22.889978,42.709343,1.036511,-2.219142,5.062607,70.597511,-102.373352,-131.097656
1123,1551329640,2.543602,-24.194101,40.084999,0.522985,-2.704048,3.849583,65.675758,-83.6203,-141.253021
1124,1551346307,5.018068,-23.3542,37.20607,0.109781,-1.889463,3.526366,80.115379,38.15337,-160.049637
1125,1551362974,7.263287,-21.893055,34.57489,-1.879082,-2.534079,1.827736,75.2938,69.852669,-153.263901
1126,1551379641,10.270769,-23.151516,31.661657,-3.321657,-2.912408,0.186744,114.812302,-100.9702,-147.062088
1127,1551396308,12.541283,-25.583883,29.466776,-4.0848,-3.092095,-0.657256,83.233315,-168.577728,-87.705391
1128,1551412975,14.35493,-27.768637,27.502325,-4.366386,-2.593481,-2.746086,57.273891,-153.853653,-70.8881
1129,1551429642,16.329382,-29.871326,25.398401,-4.911695,-1.479542,-4.345374,59.002815,-152.863556,-72.178009
1130,1551446309,18.001123,-31.972967,23.387032,-5.632617,-1.064795,-5.258731,39.696095,-153.033798,-60.545734
1131,1551462976,19.162582,-33.95322,21.066833,-6.022174,-1.974933,-7.440798,-4.630826,-151.899567,-71.626419
1132,1551479643,19.755756,-36.197365,18.724741,-6.549946,0.320316,-7.721778,-43.699947,-167.407425,-62.305294
